"sep=	"
Shimmer_6D72_TimestampSync_Unix_CAL	Shimmer_6D72_Accel_LN_X_CAL	Shimmer_6D72_Accel_LN_Y_CAL	Shimmer_6D72_Accel_LN_Z_CAL	Shimmer_6D72_Battery_CAL	Shimmer_6D72_ECG_EMG_Status1_CAL	Shimmer_6D72_ECG_EMG_Status2_CAL	Shimmer_6D72_ECG_LA-RA_24BIT_CAL	Shimmer_6D72_ECG_LL-LA_24BIT_CAL	Shimmer_6D72_ECG_LL-RA_24BIT_CAL	Shimmer_6D72_ECG_RESP_24BIT_CAL	Shimmer_6D72_ECG_Vx-RL_24BIT_CAL	Shimmer_6D72_Gyro_X_CAL	Shimmer_6D72_Gyro_Y_CAL	Shimmer_6D72_Gyro_Z_CAL	Shimmer_6D72_Mag_X_CAL	Shimmer_6D72_Mag_Y_CAL	Shimmer_6D72_Mag_Z_CAL	
ms	m/(s^2)	m/(s^2)	m/(s^2)	mV	no_units	no_units	mV	mV	mV	mV	mV	deg/s	deg/s	deg/s	local_flux	local_flux	local_flux	
1.7089505594683872E12	2.1630434782608696	-6.423913043478261	2.6956521739130435	3922.344322344322	128.0	128.0	8.68604048324114	24.578474113759295	33.264514597000435	479.5250260263713	576.047998195648	-3.8625954198473282	10.900763358778626	1.3587786259541985	-0.08845577211394302	0.41529235382308843	0.08995502248875561	
1.708950559487919E12	2.0543478260869565	-6.293478260869565	3.5652173913043477	3929.6703296703295	128.0	128.0	8.680126509681525	24.614607049775966	33.29473355945749	479.52596360754535	576.0356653971273	-4.9465648854961835	6.748091603053435	1.3740458015267174	-0.08095952023988005	0.4077961019490255	0.10494752623688156	
1.7089505595074507E12	2.0652173913043477	-6.532608695652174	3.4456521739130435	3929.6703296703295	128.0	128.0	8.694406592179131	24.624776199433352	33.319182791612484	479.5244490533411	576.0321314373174	-4.824427480916031	5.374045801526718	1.0381679389312977	-0.09295352323838081	0.40929535232383807	0.10344827586206896	
1.7089505595269824E12	2.141304347826087	-6.521739130434782	3.217391304347826	3929.6703296703295	128.0	128.0	8.704792106722845	24.640498714506474	33.34529082122932	479.5230787423943	576.0326362887188	1.5419847328244274	5.648854961832061	0.7175572519083969	-0.08095952023988005	0.4077961019490255	0.10494752623688156	
1.7089505595465142E12	2.0978260869565215	-6.315217391304348	3.3804347826086953	3929.6703296703295	128.0	128.0	8.721019473197398	24.67857893450009	33.39959840769749	479.5212035800462	576.0533351961774	0.8549618320610687	6.030534351145038	1.0534351145038168	-0.09745127436281859	0.4017991004497751	0.08095952023988005	
1.708950559566046E12	2.119565217391304	-6.282608695652174	3.282608695652174	3906.227106227106	128.0	128.0	8.737463204558278	24.709230626729802	33.44669383128808	479.52069872864473	576.0796595906805	-1.6335877862595418	6.381679389312977	1.3282442748091603	-0.0704647676161919	0.416791604197901	0.095952023988006	
1.7089505595855776E12	2.108695652173913	-6.282608695652174	3.2717391304347827	3929.6703296703295	128.0	128.0	8.767249437242679	24.818927624097785	33.586177061340464	479.5212035800462	576.1181725404468	-1.9236641221374045	6.458015267175572	1.2213740458015268	-0.08095952023988005	0.41079460269865065	0.08695652173913043	
1.7089505596051094E12	2.0978260869565215	-6.260869565217391	3.282608695652174	3929.6703296703295	128.0	128.0	8.79314110197319	24.916868795975304	33.710009897948495	479.5204823637584	576.1317314066567	-1.5725190839694656	6.366412213740458	1.099236641221374	-0.08545727136431784	0.424287856071964	0.09895052473763118	
1.708950559624641E12	2.141304347826087	-6.358695652173913	3.402173913043478	3920.879120879121	128.0	128.0	8.816292144810218	24.99281287107621	33.80910501588643	479.5192562960692	576.1181725404468	-3.0534351145038165	6.5038167938931295	1.1908396946564885	-0.08395802098950525	0.39730134932533734	0.09745127436281859	
1.7089505596441729E12	2.0869565217391304	-6.4021739130434785	3.4130434782608696	3929.6703296703295	128.0	128.0	8.79963204856301	25.02930641523676	33.82893846379977	479.51947266095556	576.0844196181798	-3.633587786259542	6.473282442748092	1.114503816793893	-0.07646176911544228	0.4077961019490255	0.08995502248875561	
1.7089505596637043E12	2.108695652173913	-6.391304347826087	3.4130434782608696	3929.6703296703295	128.0	128.0	8.740059583194206	24.962810273505486	33.70286985669969	479.519328417698	576.047998195648	-4.564885496183206	6.885496183206107	0.8549618320610687	-0.07796101949025487	0.41379310344827586	0.095952023988006	
1.708950559683236E12	2.108695652173913	-6.4021739130434785	3.3804347826086953	3928.205128205128	128.0	128.0	8.668154319304744	24.768586727212277	33.43674104651702	479.5195447825843	576.0066725023595	-5.83206106870229	6.564885496183206	1.129770992366412	-0.08395802098950525	0.41079460269865065	0.08395802098950525	
1.7089505597027678E12	2.0869565217391304	-6.445652173913043	3.4456521739130435	3929.6703296703295	128.0	128.0	8.632093504916847	24.68910869230136	33.321202197218206	479.5209150935311	575.9925366631194	-6.442748091603053	6.5038167938931295	0.9618320610687022	-0.08245877061469264	0.41379310344827586	0.09895052473763118	
1.7089505597222996E12	2.0978260869565215	-6.467391304347826	3.282608695652174	3901.8315018315016	128.0	128.0	8.619400098252308	24.62744469969806	33.24684479795037	479.51968902584184	575.9910942305439	-6.687022900763359	6.7328244274809155	0.8702290076335878	-0.09745127436281859	0.40929535232383807	0.08545727136431784	
1.7089505597418313E12	2.152173913043478	-6.326086956521739	3.684782608695652	3931.135531135531	128.0	128.0	8.608004880905733	24.60638518409553	33.21439006500126	479.52069872864473	575.9840263109239	-4.778625954198473	6.885496183206107	0.9923664122137404	-0.08995502248875561	0.424287856071964	0.095952023988006	
1.708950559761363E12	2.0978260869565215	-6.456521739130435	3.119565217391304	3931.135531135531	128.0	128.0	8.606562448330218	24.600110602392036	33.20667305072225	479.5198332690994	575.9837378244088	-3.0839694656488548	6.122137404580153	0.7938931297709924	-0.07346326836581708	0.42278860569715143	0.09745127436281859	
1.7089505597808948E12	2.0652173913043477	-6.380434782608695	3.4130434782608696	3922.344322344322	128.0	128.0	8.598412704278553	24.6151119011774	33.21352460545595	479.51745325534984	575.9938348524374	-3.0076335877862594	6.900763358778626	0.8396946564885496	-0.09745127436281859	0.4017991004497751	0.08545727136431784	
1.7089505598004265E12	2.119565217391304	-6.434782608695652	3.3478260869565215	3931.135531135531	128.0	128.0	8.597042393331813	24.624992564319683	33.222034957651495	479.5181023500088	575.9985948799366	-4.412213740458015	6.213740458015267	0.41221374045801523	-0.095952023988006	0.41079460269865065	0.09745127436281859	
1.7089505598199583E12	2.0978260869565215	-6.445652173913043	3.434782608695652	3929.6703296703295	128.0	128.0	8.590335081855665	24.647350269240178	33.23768535109584	479.51889568792535	575.9983785150503	-4.351145038167939	7.3893129770992365	0.22900763358778625	-0.08995502248875561	0.40929535232383807	0.08545727136431784	
1.70895055983949E12	2.108695652173913	-6.445652173913043	3.4456521739130435	3929.6703296703295	128.0	128.0	8.59437389306711	24.65636547283715	33.25073936590426	479.51817447163756	575.9880651221354	-5.679389312977099	7.572519083969465	0.4580152671755725	-0.08395802098950525	0.4077961019490255	0.09745127436281859	
1.7089505598590217E12	2.141304347826087	-6.445652173913043	3.3804347826086953	3929.6703296703295	128.0	128.0	8.580598661970933	24.669707974160673	33.250306636131604	479.5178138634937	575.9844590406965	-5.877862595419847	7.0534351145038165	0.5343511450381679	-0.07646176911544228	0.4047976011994003	0.08695652173913043	
1.7089505598785535E12	2.119565217391304	-6.413043478260869	3.3152173913043477	3906.227106227106	128.0	128.0	8.577497431933574	24.65297575628469	33.23047318821826	479.5189678095541	575.9779680941067	-6.183206106870228	7.114503816793893	0.6564885496183206	-0.0914542728635682	0.41529235382308843	0.09745127436281859	
1.7089505598980852E12	2.108695652173913	-6.413043478260869	3.3152173913043477	3929.6703296703295	128.0	128.0	8.561702795231676	24.650523620906313	33.21222641613799	479.51875144466777	575.968231674222	-5.49618320610687	6.641221374045801	1.1908396946564885	-0.08095952023988005	0.4002998500749625	0.0944527736131934	
1.708950559917617E12	2.119565217391304	-6.423913043478261	3.3478260869565215	3929.6703296703295	128.0	128.0	8.562640376405762	24.645691471778335	33.208331848184095	479.5195447825843	575.9561873622164	-5.7251908396946565	6.702290076335878	0.9312977099236641	-0.08395802098950525	0.4077961019490255	0.10194902548725637	
1.7089505599371487E12	2.119565217391304	-6.445652173913043	3.3369565217391304	3920.879120879121	128.0	128.0	8.550956672544084	24.64987452624733	33.20083119879141	479.5182465932663	575.9574855515344	-5.099236641221374	6.824427480916031	0.7786259541984732	-0.08545727136431784	0.41379310344827586	0.08845577211394302	
1.7089505599566804E12	2.119565217391304	-6.445652173913043	3.3804347826086953	3929.6703296703295	128.0	128.0	8.548360293908155	24.644609647346698	33.19296994125485	479.5182465932663	575.963399525094	-4.473282442748092	6.778625954198473	0.9923664122137404	-0.09895052473763118	0.4002998500749625	0.10194902548725637	
1.7089505599762122E12	2.130434782608696	-6.467391304347826	3.3369565217391304	3928.205128205128	128.0	128.0	8.528671089252365	24.64900906670202	33.177680155954384	479.51997751235695	575.9473164018771	-3.7251908396946565	7.038167938931298	0.5801526717557252	-0.07796101949025487	0.4017991004497751	0.08095952023988005	
1.708950559995744E12	2.130434782608696	-6.434782608695652	3.3369565217391304	3928.205128205128	128.0	128.0	8.532277170691154	24.648792701815694	33.181069872506846	479.51889568792535	575.9540237133532	-4.244274809160305	6.8396946564885495	0.916030534351145	-0.08245877061469264	0.40629685157421286	0.09295352323838081	
1.7089505600152756E12	2.141304347826087	-6.456521739130435	3.2717391304347827	3929.6703296703295	128.0	128.0	8.524055305010714	24.64237387685465	33.16642918186536	479.5192562960692	575.9641207413817	-4.106870229007633	6.564885496183206	0.564885496183206	-0.08545727136431784	0.40629685157421286	0.07796101949025487	
1.7089505600348074E12	2.130434782608696	-6.423913043478261	3.3260869565217392	3904.7619047619046	128.0	128.0	8.528887454138692	24.648071485527936	33.176958939666626	479.51860720141025	575.9476770100209	-4.061068702290076	6.519083969465648	0.7633587786259541	-0.08095952023988005	0.41079460269865065	0.09745127436281859	
1.708950560054339E12	2.119565217391304	-6.434782608695652	3.3152173913043477	3931.135531135531	128.0	128.0	8.513092817436792	24.647782999012833	33.160875816449625	479.51968902584184	575.944431536726	-3.450381679389313	6.824427480916031	0.7633587786259541	-0.08395802098950525	0.41529235382308843	0.09745127436281859	
1.7089505600738708E12	2.119565217391304	-6.423913043478261	3.3152173913043477	3929.6703296703295	128.0	128.0	8.5249928861848	24.644465404089146	33.169458290273944	479.5181023500088	575.9390224145678	-3.068702290076336	6.809160305343511	0.916030534351145	-0.07646176911544228	0.42278860569715143	0.0944527736131934	
1.7089505600934026E12	2.119565217391304	-6.413043478260869	3.3260869565217392	3919.4139194139193	128.0	128.0	8.504870951756352	24.656509716094703	33.161380667851056	479.5190399311829	575.9371472522196	-2.6717557251908395	6.763358778625954	0.6412213740458015	-0.08395802098950525	0.4257871064467766	0.09745127436281859	
1.7089505601129343E12	2.119565217391304	-6.445652173913043	3.3369565217391304	3931.135531135531	128.0	128.0	8.503140032665733	24.65723093238246	33.160370965048195	479.5201217556145	575.9295744811982	-2.7022900763358777	6.854961832061068	0.8702290076335878	-0.0914542728635682	0.41079460269865065	0.09745127436281859	
1.708950560132466E12	2.108695652173913	-6.445652173913043	3.3369565217391304	3929.6703296703295	128.0	128.0	8.495783626530603	24.668337663213933	33.164121289744536	479.5165877958045	575.9363539143031	-2.5343511450381677	6.8396946564885495	1.2366412213740459	-0.08845577211394302	0.42278860569715143	0.08995502248875561	
1.7089505601519978E12	2.119565217391304	-6.445652173913043	3.293478260869565	3929.6703296703295	128.0	128.0	8.498307883537755	24.662640054540645	33.1609479380784	479.51644355254695	575.9002209782864	-2.0610687022900764	6.763358778625954	1.0534351145038168	-0.095952023988006	0.41079460269865065	0.09745127436281859	
1.7089505601715295E12	2.119565217391304	-6.445652173913043	3.3260869565217392	3909.1575091575087	128.0	128.0	8.491456328804055	24.672809204198032	33.16426553300209	479.5170926472059	575.899716126885	-2.3664122137404577	6.7328244274809155	1.2061068702290076	-0.07646176911544228	0.41079460269865065	0.08695652173913043	
1.7089505601910613E12	2.130434782608696	-6.445652173913043	3.3369565217391304	3904.7619047619046	128.0	128.0	8.500255167514702	24.662351568025542	33.162606735540244	479.5160829444031	575.8769978138206	-2.3053435114503817	6.595419847328244	0.9618320610687022	-0.095952023988006	0.41529235382308843	0.08395802098950525	
1.708950560210593E12	2.130434782608696	-6.445652173913043	3.3043478260869565	3929.6703296703295	128.0	128.0	8.485758720130768	24.670068582304552	33.15582730243532	479.5162993092894	575.8770699354494	-1.9694656488549618	6.549618320610687	0.9312977099236641	-0.095952023988006	0.41829085457271364	0.0944527736131934	
1.7089505602301248E12	2.119565217391304	-6.445652173913043	3.3369565217391304	3929.6703296703295	128.0	128.0	8.487201152706284	24.67764135332601	33.164842506032294	479.5160108227743	575.8736080972682	-2.4885496183206106	6.717557251908397	0.9618320610687022	-0.08995502248875561	0.40929535232383807	0.10344827586206896	
1.7089505602496565E12	2.108695652173913	-6.423913043478261	3.358695652173913	3922.344322344322	128.0	128.0	8.498163640280204	24.670140703933328	33.16830434421353	479.51586657951674	575.8903403151442	-2.6412213740458013	6.717557251908397	1.0687022900763359	-0.08245877061469264	0.41379310344827586	0.095952023988006	
1.7089505602691882E12	2.0978260869565215	-6.423913043478261	3.358695652173913	3929.6703296703295	128.0	128.0	8.499750316113271	24.682689867340315	33.182440183453586	479.51528960648653	575.9060628302173	-2.6717557251908395	6.595419847328244	0.732824427480916	-0.07646176911544228	0.41079460269865065	0.08995502248875561	
1.70895056028872E12	2.108695652173913	-6.434782608695652	3.3152173913043477	3929.6703296703295	128.0	128.0	8.508044303422487	24.71651491123616	33.22455921465865	479.51521748485777	575.8940185182117	-2.931297709923664	6.748091603053435	0.916030534351145	-0.09745127436281859	0.416791604197901	0.09895052473763118	
1.7089505603082517E12	2.108695652173913	-6.456521739130435	3.358695652173913	3928.205128205128	128.0	128.0	8.523406210351732	24.793468689139928	33.31687489949166	479.5134144441384	575.8917827477196	-3.3740458015267176	6.870229007633587	0.732824427480916	-0.08395802098950525	0.41079460269865065	0.09745127436281859	
1.7089505603277834E12	2.108695652173913	-6.445652173913043	3.402173913043478	3928.205128205128	128.0	128.0	8.530041400199105	24.79671416243484	33.32675556263394	479.5129817143657	575.875915989389	-3.6946564885496183	7.251908396946565	0.6870229007633587	-0.08545727136431784	0.42728635682158916	0.08545727136431784	
1.7089505603473152E12	2.0978260869565215	-6.478260869565217	3.4130434782608696	3904.7619047619046	128.0	128.0	8.522396507548871	24.71240397839594	33.23480048594481	479.5142077820549	575.8864457471902	-4.152671755725191	6.671755725190839	1.0076335877862594	-0.08995502248875561	0.4197901049475262	0.095952023988006	
1.708950560366847E12	2.119565217391304	-6.521739130434782	3.4130434782608696	3929.6703296703295	128.0	128.0	8.51655465561803	24.70281180176876	33.21936645738679	479.5128374711082	575.8777911517371	-3.3893129770992365	6.916030534351145	0.7633587786259541	-0.07646176911544228	0.42278860569715143	0.08995502248875561	
1.7089505603863787E12	2.119565217391304	-6.521739130434782	3.25	3929.6703296703295	128.0	128.0	8.532205049062378	24.6836274485144	33.21583249757678	479.51290959273695	575.8813972331759	-2.259541984732824	7.099236641221374	0.8244274809160305	-0.08395802098950525	0.41829085457271364	0.08695652173913043	
1.7089505604059104E12	2.119565217391304	-6.489130434782608	3.358695652173913	3919.4139194139193	128.0	128.0	8.536027495387495	24.67353042048579	33.20955791587328	479.5137029306535	575.8954609507872	-0.33587786259541985	7.099236641221374	0.9312977099236641	-0.08545727136431784	0.40929535232383807	0.09895052473763118	
1.7089505604254421E12	2.108695652173913	-6.423913043478261	3.358695652173913	3929.6703296703295	128.0	128.0	8.566318579473327	24.620665266593136	33.18698384606646	479.5115392817902	575.9362817926743	-0.12213740458015267	7.221374045801526	0.8549618320610687	-0.08245877061469264	0.40929535232383807	0.09895052473763118	
1.7089505604449739E12	2.141304347826087	-6.423913043478261	3.3369565217391304	3929.6703296703295	128.0	128.0	8.639305667794426	25.435134820358137	34.07444048815256	479.51247686296426	575.2275425466946	-2.0610687022900764	6.854961832061068	1.0381679389312977	-0.07796101949025487	0.40629685157421286	0.095952023988006	
1.7089505604645056E12	2.1630434782608696	-6.413043478260869	3.5217391304347827	3925.274725274725	128.0	128.0	8.657047588473272	25.798050856357914	34.45509844483119	479.5100968492147	574.9084043393617	-3.4045801526717554	7.374045801526718	0.8396946564885496	-0.08395802098950525	0.39730134932533734	0.09745127436281859	
1.7089505604840374E12	2.0869565217391304	-6.543478260869565	2.967391304347826	3929.6703296703295	128.0	128.0	8.693180524489943	24.40675251564414	33.09993304013408	479.5129817143657	575.9595770787689	-5.221374045801526	5.190839694656488	0.7938931297709924	-0.08245877061469264	0.41379310344827586	0.08845577211394302	
1.708950560503569E12	2.0869565217391304	-6.25	3.9782608695652173	3903.296703296703	128.0	128.0	8.694190227292804	24.57306499160111	33.267255218893915	479.5132702008808	575.9925366631194	-3.0534351145038165	8.15267175572519	0.0916030534351145	-0.07796101949025487	0.40629685157421286	0.08845577211394302	
1.7089505605231008E12	2.130434782608696	-6.434782608695652	2.9239130434782608	3929.6703296703295	128.0	128.0	8.648897844421608	24.647710877384053	33.29660872180566	479.5142799036837	575.9873439058475	-3.9541984732824424	9.297709923664122	0.7480916030534351	-0.08845577211394302	0.41079460269865065	0.08995502248875561	
1.7089505605426326E12	2.108695652173913	-6.380434782608695	3.3043478260869565	3929.6703296703295	128.0	128.0	8.649474817451814	24.670789798592306	33.32026461604412	479.5147847550851	575.9831608513786	-4.076335877862595	8.625954198473282	0.9618320610687022	-0.08845577211394302	0.4077961019490255	0.0944527736131934	
1.7089505605621643E12	2.010869565217391	-6.434782608695652	3.4891304347826084	3919.4139194139193	128.0	128.0	8.66822644093352	24.67966075893173	33.34788719986525	479.5162271876606	575.9883536086504	-5.267175572519084	6.259541984732824	0.8854961832061068	-0.08545727136431784	0.424287856071964	0.09295352323838081	
1.708950560581696E12	2.152173913043478	-6.543478260869565	3.3478260869565215	3929.6703296703295	128.0	128.0	8.685896239983588	24.709735478131233	33.39563171811482	479.5131259576233	575.9900124061123	-1.6946564885496183	5.541984732824427	0.7175572519083969	-0.07646176911544228	0.41079460269865065	0.08695652173913043	
1.7089505606012278E12	2.152173913043478	-6.456521739130435	3.3260869565217392	3929.6703296703295	128.0	128.0	8.699022376420782	24.72004887104617	33.41907124746695	479.5121162548204	576.0103507054271	1.4198473282442747	5.49618320610687	0.3969465648854962	-0.08245877061469264	0.416791604197901	0.08545727136431784	
1.7089505606207595E12	2.0978260869565215	-6.391304347826087	3.3260869565217392	3926.7399267399264	128.0	128.0	8.741429894140946	24.761590929221025	33.50302082336197	479.5115392817902	576.0531909529199	-0.6870229007633587	5.9541984732824424	0.6259541984732824	-0.07796101949025487	0.40929535232383807	0.10644677661169415	
1.7089505606402913E12	2.119565217391304	-6.33695652173913	3.3043478260869565	3929.6703296703295	128.0	128.0	8.764292450462872	24.808542109554065	33.572834560016936	479.51024109247226	576.0865111454143	-2.6564885496183206	5.9541984732824424	1.0229007633587786	-0.07796101949025487	0.40629685157421286	0.09295352323838081	
1.708950560659823E12	2.130434782608696	-6.369565217391304	3.391304347826087	3912.0879120879117	128.0	128.0	8.801146602767302	24.91145967381712	33.712606276584424	479.50995260595715	576.1126912966599	-2.0763358778625953	5.770992366412213	0.9465648854961831	-0.08245877061469264	0.40629685157421286	0.095952023988006	
1.7089505606793547E12	2.130434782608696	-6.391304347826087	3.402173913043478	3931.135531135531	128.0	128.0	8.836053471094784	25.038970713492716	33.8750241845875	479.51161140341895	576.1077870259031	-1.984732824427481	6.106870229007633	0.8549618320610687	-0.08545727136431784	0.40629685157421286	0.10344827586206896	
1.7089505606988865E12	2.130434782608696	-6.413043478260869	3.391304347826087	3929.6703296703295	128.0	128.0	8.83699105226887	25.08123398795533	33.9182250402242	479.51175564667653	576.062783129547	-2.1374045801526718	6.427480916030534	0.48854961832061067	-0.08995502248875561	0.4197901049475262	0.09895052473763118	
1.7089505607184182E12	2.141304347826087	-6.445652173913043	3.358695652173913	3920.879120879121	128.0	128.0	8.765230031636957	24.999952912325018	33.765182943961975	479.5126932278506	575.9751553505845	-2.0610687022900764	6.519083969465648	0.4580152671755725	-0.07796101949025487	0.40629685157421286	0.095952023988006	
1.7089505607379497E12	2.152173913043478	-6.445652173913043	3.3804347826086953	3929.6703296703295	128.0	128.0	8.730034676794372	24.843521099510323	33.573555776304694	479.51110655201757	575.9319544949477	-2.229007633587786	5.908396946564885	0.6717557251908397	-0.08545727136431784	0.41379310344827586	0.08095952023988005	
1.7089505607574814E12	2.130434782608696	-6.423913043478261	3.369565217391304	3929.6703296703295	128.0	128.0	8.674140414493134	24.700576031276707	33.37471644576984	479.5131259576233	575.917385925935	-2.732824427480916	6.152671755725191	0.6564885496183206	-0.10344827586206896	0.4077961019490255	0.08395802098950525	
1.7089505607770132E12	2.130434782608696	-6.391304347826087	3.369565217391304	3926.7399267399264	128.0	128.0	8.66512521089616	24.67071767696353	33.33584288785969	479.51406353879736	575.9126980200647	-3.2519083969465647	5.908396946564885	0.7633587786259541	-0.07646176911544228	0.41829085457271364	0.08995502248875561	
1.708950560796545E12	2.108695652173913	-6.391304347826087	3.369565217391304	3929.6703296703295	128.0	128.0	8.649835425595693	24.632781700227465	33.28261712582316	479.51528960648653	575.9238768725248	-1.2213740458015268	6.015267175572519	0.7786259541984732	-0.08845577211394302	0.42278860569715143	0.09745127436281859	
1.7089505608160767E12	2.108695652173913	-6.445652173913043	3.0978260869565215	3904.7619047619046	128.0	128.0	8.645363884611594	24.632276848826034	33.27764073343763	479.5155059713729	575.9246702104414	-4.1679389312977095	6.442748091603053	1.2213740458015268	-0.08095952023988005	0.41079460269865065	0.0944527736131934	
1.7089505608356084E12	2.0652173913043477	-6.315217391304348	3.6739130434782608	3929.6703296703295	128.0	128.0	8.65863426430634	24.621674969395993	33.28030923370233	479.5160108227743	575.9187562368818	-3.633587786259542	7.190839694656488	0.916030534351145	-0.08545727136431784	0.416791604197901	0.10344827586206896	
1.7089505608551401E12	2.119565217391304	-6.456521739130435	3.2282608695652173	3929.6703296703295	128.0	128.0	8.658778507563891	24.642590241740972	33.301368749304864	479.51615506603184	575.9264732511608	-4.717557251908397	6.809160305343511	1.0534351145038168	-0.10044977511244378	0.39430284857571213	0.09295352323838081	
1.7089505608746719E12	2.0869565217391304	-6.413043478260869	3.467391304347826	3919.4139194139193	128.0	128.0	8.656542737071842	24.64381630943016	33.300359046502	479.5201217556145	575.9349114817276	-3.8167938931297707	7.633587786259541	0.8244274809160305	-0.08395802098950525	0.42278860569715143	0.08995502248875561	
1.7089505608942036E12	2.108695652173913	-6.456521739130435	3.369565217391304	3929.6703296703295	128.0	128.0	8.65639849381429	24.64879270181569	33.30519119562998	479.5190399311829	575.9248865753277	-4.229007633587786	7.969465648854961	1.2366412213740459	-0.0914542728635682	0.4077961019490255	0.0944527736131934	
1.7089505609137354E12	2.108695652173913	-6.413043478260869	3.358695652173913	3929.6703296703295	128.0	128.0	8.65452333146612	24.652615148140807	33.30713847960693	479.5189678095541	575.9098131549136	-3.709923664122137	7.709923664122137	0.9618320610687022	-0.07346326836581708	0.41829085457271364	0.08995502248875561	
1.708950560933267E12	2.0978260869565215	-6.380434782608695	3.3260869565217392	3928.205128205128	128.0	128.0	8.656686980329393	24.629824713447658	33.28651169377705	479.52156418819004	575.9113277091179	-3.8167938931297707	7.633587786259541	1.1755725190839694	-0.08395802098950525	0.41529235382308843	0.0944527736131934	
1.7089505609527988E12	2.0978260869565215	-6.33695652173913	3.3369565217391304	3929.6703296703295	128.0	128.0	8.642623262718113	24.621314361252118	33.26393762397023	479.5229344991368	575.9081543574517	-4.076335877862595	7.206106870229007	1.1603053435114503	-0.0914542728635682	0.41829085457271364	0.08695652173913043	
1.7089505609723306E12	2.0978260869565215	-6.315217391304348	3.3260869565217392	3912.0879120879117	128.0	128.0	8.637214140559928	24.617564036555777	33.2547781771157	479.52228540447777	575.9010143162029	-4.2748091603053435	7.190839694656488	1.0687022900763359	-0.08395802098950525	0.4047976011994003	0.08695652173913043	
1.7089505609918623E12	2.119565217391304	-6.358695652173913	3.3260869565217392	3929.6703296703295	128.0	128.0	8.633463815863587	24.605808211065323	33.23927202692891	479.5243769317123	575.9127701416934	-4.061068702290076	6.8396946564885495	0.8244274809160305	-0.09295352323838081	0.40929535232383807	0.09295352323838081	
1.708950561011394E12	2.119565217391304	-6.380434782608695	3.2391304347826084	3931.135531135531	128.0	128.0	8.62416012575151	24.608332468072476	33.232492593823984	479.5239442019396	575.9085870872244	-3.8931297709923665	7.206106870229007	0.6106870229007634	-0.0914542728635682	0.4002998500749625	0.09745127436281859	
1.7089505610309258E12	2.119565217391304	-6.369565217391304	3.282608695652174	3919.4139194139193	128.0	128.0	8.626684382758663	24.598019075157538	33.2247034579162	479.5249539047425	575.9085149655956	-3.9083969465648853	7.3893129770992365	1.0076335877862594	-0.08245877061469264	0.40929535232383807	0.08095952023988005	
1.7089505610504575E12	2.108695652173913	-6.4021739130434785	3.3478260869565215	3929.6703296703295	128.0	128.0	8.621996476888237	24.59282631788568	33.214822794773916	479.52358359379576	575.8961821670749	-5.251908396946565	6.99236641221374	1.0229007633587786	-0.07796101949025487	0.4017991004497751	0.08545727136431784	
1.7089505610699893E12	2.0978260869565215	-6.369565217391304	3.3043478260869565	3928.205128205128	128.0	128.0	8.618029787305568	24.582296560084416	33.20032634738998	479.5252423912576	575.8987064240821	-6.412213740458015	6.33587786259542	1.0381679389312977	-0.08395802098950525	0.41529235382308843	0.08395802098950525	
1.708950561089521E12	2.108695652173913	-6.369565217391304	3.3152173913043477	3928.205128205128	128.0	128.0	8.600648474770603	24.589292358075667	33.18994083284627	479.522862377508	575.8872390851068	-6.045801526717557	6.763358778625954	0.9465648854961831	-0.08395802098950525	0.41529235382308843	0.09745127436281859	
1.7089505611090527E12	2.0978260869565215	-6.423913043478261	3.25	3920.879120879121	128.0	128.0	8.596104812157728	24.583162019629725	33.17926683178745	479.5239442019396	575.8925039640075	-5.709923664122138	6.854961832061068	0.8854961832061068	-0.08545727136431784	0.40629685157421286	0.07496251874062969	
1.7089505611285845E12	2.119565217391304	-6.413043478260869	3.3260869565217392	3913.5531135531132	128.0	128.0	8.580742905228485	24.58135897891033	33.16210188413881	479.52416056682597	575.8886093960535	-5.221374045801526	6.595419847328244	0.9007633587786259	-0.08995502248875561	0.40629685157421286	0.08845577211394302	
1.7089505611481162E12	2.0978260869565215	-6.489130434782608	3.3152173913043477	3929.6703296703295	128.0	128.0	8.577281067047247	24.584171722432586	33.16145278947983	479.5254587561439	575.8820463278349	-4.687022900763359	6.564885496183206	0.8549618320610687	-0.08245877061469264	0.416791604197901	0.08545727136431784	
1.708950561167648E12	2.0869565217391304	-6.445652173913043	3.3152173913043477	3929.6703296703295	128.0	128.0	8.570790120457426	24.576526829782352	33.14731695023978	479.52452117496983	575.8883209095384	-2.946564885496183	6.625954198473282	1.0534351145038168	-0.08845577211394302	0.4047976011994003	0.09745127436281859	
1.7089505611871797E12	2.119565217391304	-6.456521739130435	3.2717391304347827	3919.4139194139193	128.0	128.0	8.580526540342158	24.568593450617016	33.14911999095917	479.5232229856519	575.8766372056767	-2.8091603053435112	6.717557251908397	0.916030534351145	-0.07796101949025487	0.3988005997001499	0.09295352323838081	
1.7089505612067114E12	2.119565217391304	-6.445652173913043	3.293478260869565	3929.6703296703295	128.0	128.0	8.55513972701308	24.580277154478694	33.13541688149177	479.5232229856519	575.8847869497284	-3.068702290076336	6.534351145038167	0.7022900763358778	-0.09295352323838081	0.416791604197901	0.10344827586206896	
1.7089505612262432E12	2.108695652173913	-6.434782608695652	3.3152173913043477	3929.6703296703295	128.0	128.0	8.552471226748375	24.58373899265993	33.136210219408305	479.52300662076556	575.8821184494637	-4.030534351145038	6.473282442748092	0.6259541984732824	-0.07346326836581708	0.4257871064467766	0.08395802098950525	
1.708950561245775E12	2.119565217391304	-6.434782608695652	3.3152173913043477	3928.205128205128	128.0	128.0	8.558240957050439	24.584243844061362	33.1424848011118	479.5220690395915	575.8828396657515	-4.183206106870228	7.190839694656488	0.6717557251908397	-0.08995502248875561	0.41379310344827586	0.09295352323838081	
1.7089505612653066E12	2.119565217391304	-6.434782608695652	3.293478260869565	3929.6703296703295	128.0	128.0	8.54655725318876	24.576671073039904	33.12322832622866	479.522862377508	575.8860851390464	-4.473282442748092	6.625954198473282	0.8244274809160305	-0.08095952023988005	0.4077961019490255	0.08995502248875561	
1.7089505612848384E12	2.119565217391304	-6.423913043478261	3.3260869565217392	3904.7619047619046	128.0	128.0	8.53458506281198	24.584676573834017	33.119261636645994	479.5223575261066	575.88586877416	-4.427480916030534	6.3969465648854955	0.7022900763358778	-0.08395802098950525	0.4077961019490255	0.0944527736131934	
1.70895056130437E12	2.119565217391304	-6.434782608695652	3.2282608695652173	3929.6703296703295	128.0	128.0	8.5386959956522	24.588354776901582	33.12705077255378	479.52127570167494	575.8747620433286	-4.442748091603053	6.671755725190839	0.2900763358778626	-0.08845577211394302	0.39730134932533734	0.0944527736131934	
1.7089505613239019E12	2.130434782608696	-6.413043478260869	3.282608695652174	3931.135531135531	128.0	128.0	8.546989982961415	24.634945349090742	33.181935332052156	479.52127570167494	575.8536304060973	-3.709923664122137	6.824427480916031	0.9312977099236641	-0.08995502248875561	0.4197901049475262	0.09295352323838081	
1.7089505613434336E12	2.119565217391304	-6.434782608695652	3.293478260869565	3919.4139194139193	128.0	128.0	8.563073106178416	24.707211221124084	33.2702843273025	479.51997751235695	575.857236487536	-3.32824427480916	7.32824427480916	0.9312977099236641	-0.08545727136431784	0.416791604197901	0.095952023988006	
1.7089505613629653E12	2.141304347826087	-6.456521739130435	3.358695652173913	3901.8315018315016	128.0	128.0	8.551750010460617	24.64064295776403	33.192392968224645	479.51947266095556	575.8503849328024	-3.7862595419847325	6.931297709923664	0.9465648854961831	-0.08545727136431784	0.4017991004497751	0.08845577211394302	
1.708950561382497E12	2.0760869565217392	-6.467391304347826	3.3478260869565215	3929.6703296703295	128.0	128.0	8.498380005166531	24.618141009585983	33.116521014752514	479.52084297190225	575.8500964462872	-3.8167938931297707	6.351145038167939	0.8549618320610687	-0.08995502248875561	0.41379310344827586	0.09295352323838081	
1.7089505614020288E12	2.119565217391304	-6.467391304347826	3.260869565217391	3928.205128205128	128.0	128.0	8.510640682058416	24.584027479175035	33.09466816123345	479.5201217556145	575.8454806620456	-2.916030534351145	7.068702290076335	0.8091603053435115	-0.10344827586206896	0.41529235382308843	0.10794602698650674	
1.7089505614215605E12	2.141304347826087	-6.423913043478261	3.2065217391304346	3929.6703296703295	128.0	128.0	8.498163640280204	24.584243844061355	33.08240748434156	479.51968902584184	575.8407927561751	-2.7938931297709924	6.961832061068702	0.6106870229007634	-0.08395802098950525	0.42278860569715143	0.09745127436281859	
1.7089505614410923E12	2.130434782608696	-6.423913043478261	3.3043478260869565	3904.7619047619046	128.0	128.0	8.48828297713792	24.577175924441327	33.06545890157925	479.5207708502735	575.852115851893	-1.1603053435114503	6.854961832061068	0.6717557251908397	-0.08545727136431784	0.40929535232383807	0.10344827586206896	
1.708950561460624E12	2.119565217391304	-6.445652173913043	3.260869565217391	3931.135531135531	128.0	128.0	8.51655465561803	24.507650674301466	33.024205329919496	479.52004963398576	575.9322429814629	-1.0381679389312977	6.854961832061068	0.7175572519083969	-0.09745127436281859	0.4017991004497751	0.09295352323838081	
1.7089505614801558E12	2.130434782608696	-6.434782608695652	3.358695652173913	3929.6703296703295	128.0	128.0	8.47270470532235	25.886688338123363	34.35939304344571	479.5225017693641	574.8289263044509	-0.6870229007633587	7.083969465648854	0.7480916030534351	-0.08395802098950525	0.39730134932533734	0.10194902548725637	
1.7089505614996875E12	2.119565217391304	-6.434782608695652	3.5	3919.4139194139193	128.0	128.0	8.518862547738856	25.245238571791482	33.76410111953034	479.5192562960692	575.1704222167042	-2.0763358778625953	7.557251908396946	0.8396946564885496	-0.08845577211394302	0.4332833583208396	0.09745127436281859	
1.7089505615192192E12	2.0760869565217392	-6.521739130434782	2.891304347826087	3938.461538461538	128.0	128.0	8.609014583708595	24.36867229565052	32.97768687935911	479.5178138634937	575.9787614320232	-3.7709923664122136	4.366412213740458	0.732824427480916	-0.07646176911544228	0.4002998500749625	0.10794602698650674	
1.708950561538751E12	2.0652173913043477	-6.391304347826087	3.608695652173913	3929.6703296703295	128.0	128.0	8.518646182852528	24.56585282872353	33.08449901157606	479.52004963398576	575.9372914954772	-2.1526717557251906	9.48091603053435	0.22900763358778625	-0.10044977511244378	0.40929535232383807	0.08545727136431784	
1.7089505615582827E12	2.1630434782608696	-6.380434782608695	3.2391304347826084	3929.6703296703295	128.0	128.0	8.485325990358113	24.597802710271203	33.08312870062932	479.51875144466777	575.9470279153619	-1.7862595419847327	9.541984732824426	1.099236641221374	-0.0914542728635682	0.41529235382308843	0.0944527736131934	
1.7089505615778145E12	2.108695652173913	-6.456521739130435	3.1630434782608696	3929.6703296703295	128.0	128.0	8.502923667779406	24.620665266593136	33.12358893437254	479.5160108227743	575.93830119828	-3.618320610687023	7.587786259541985	1.3587786259541985	-0.08545727136431784	0.4017991004497751	0.08845577211394302	
1.7089505615973462E12	2.043478260869565	-6.478260869565217	3.434782608695652	3917.948717948718	128.0	128.0	8.497081815848567	24.639128403559738	33.136210219408305	479.5156502146304	575.9332526842658	-4.290076335877862	6.412213740458015	1.0687022900763359	-0.09895052473763118	0.41079460269865065	0.10494752623688156	
1.708950561616878E12	2.152173913043478	-6.510869565217391	3.3152173913043477	3929.6703296703295	128.0	128.0	8.521458926374786	24.663361270828403	33.18482019720319	479.5131259576233	575.9535909835805	-0.9465648854961831	6.793893129770992	1.2671755725190839	-0.08845577211394302	0.41079460269865065	0.0944527736131934	
1.7089505616364097E12	2.119565217391304	-6.413043478260869	3.293478260869565	3929.6703296703295	128.0	128.0	8.542157833833437	24.690695368134428	33.23285320196786	479.51146716016143	575.9600098085416	0.6717557251908397	6.076335877862595	1.1755725190839694	-0.0914542728635682	0.42278860569715143	0.0944527736131934	
1.7089505616559414E12	2.130434782608696	-6.413043478260869	3.3478260869565215	3920.879120879121	128.0	128.0	8.569564052768238	24.761446685963477	33.33101073873171	479.5097362410708	576.0060234077005	-2.396946564885496	5.969465648854961	1.282442748091603	-0.07346326836581708	0.41079460269865065	0.09745127436281859	
1.7089505616754731E12	2.130434782608696	-6.380434782608695	3.3260869565217392	3929.6703296703295	128.0	128.0	8.60944731348125	24.818062164552472	33.42750947803372	479.5075725922075	576.0397763299676	-2.5343511450381677	6.030534351145038	1.0229007633587786	-0.08095952023988005	0.4047976011994003	0.08995502248875561	
1.708950561695005E12	2.141304347826087	-6.4021739130434785	3.3369565217391304	3929.6703296703295	128.0	128.0	8.65553303426898	24.954299921309943	33.60983295557892	479.5050483352004	576.0739619820073	-1.9236641221374045	6.045801526717557	1.1755725190839694	-0.08845577211394302	0.41079460269865065	0.0944527736131934	
1.7089505617145366E12	2.141304347826087	-6.391304347826087	3.402173913043478	3926.7399267399264	128.0	128.0	8.69426234892158	25.018343927662844	33.712606276584424	479.5046877270565	576.0542727773515	-2.0763358778625953	6.412213740458015	1.0687022900763359	-0.07796101949025487	0.40929535232383807	0.095952023988006	
1.7089505617340684E12	2.130434782608696	-6.434782608695652	3.3804347826086953	3929.6703296703295	128.0	128.0	8.650989371656106	25.048779255006227	33.69976862666233	479.5052647000867	575.9992439745956	-2.6564885496183206	6.458015267175572	0.916030534351145	-0.08845577211394302	0.41079460269865065	0.08395802098950525	
1.7089505617536E12	2.141304347826087	-6.456521739130435	3.3804347826086953	3919.4139194139193	128.0	128.0	8.581464121516243	24.907565105863227	33.48902922737947	479.5046877270565	575.8969755049915	-2.6412213740458013	6.305343511450381	0.8854961832061068	-0.08245877061469264	0.41379310344827586	0.095952023988006	
1.7089505617731318E12	2.108695652173913	-6.456521739130435	3.402173913043478	3929.6703296703295	128.0	128.0	8.532421413948706	24.797435378722597	33.3298567926713	479.50237983493565	575.8619243934065	-2.7022900763358777	6.946564885496183	0.6870229007633587	-0.09895052473763118	0.4002998500749625	0.08995502248875561	
1.7089505617926636E12	2.108695652173913	-6.478260869565217	3.3478260869565215	3929.6703296703295	128.0	128.0	8.499461829598168	24.690190516732997	33.189652346331165	479.50281256470834	575.8410812426903	-2.6717557251908395	7.022900763358779	0.6870229007633587	-0.08545727136431784	0.3913043478260869	0.08845577211394302	
1.708950561812195E12	2.0760869565217392	-6.445652173913043	3.3152173913043477	3919.4139194139193	128.0	128.0	8.493836342553656	24.656870324238582	33.15070666679224	479.50324529448096	575.8290369306848	-2.5038167938931295	6.458015267175572	0.7938931297709924	-0.08245877061469264	0.4197901049475262	0.08845577211394302	
1.7089505618317268E12	2.119565217391304	-6.3478260869565215	3.75	3929.6703296703295	128.0	128.0	8.495855748159379	24.64129205242301	33.13714780058239	479.50237983493565	575.8381242559104	-0.9465648854961831	6.854961832061068	0.9770992366412213	-0.10344827586206896	0.41829085457271364	0.0944527736131934	
1.7089505618512585E12	2.0869565217391304	-6.434782608695652	3.119565217391304	3929.6703296703295	128.0	128.0	8.503789127324715	24.631339267651953	33.13512839497667	479.5023077133069	575.8397109317435	-4.488549618320611	6.244274809160305	1.0687022900763359	-0.08545727136431784	0.3988005997001499	0.08845577211394302	
1.7089505618707903E12	2.0760869565217392	-6.4021739130434785	3.510869565217391	3928.205128205128	128.0	128.0	8.506818235733299	24.65362485094367	33.16044308667697	479.50093740236014	575.8363933368198	-2.8244274809160306	6.687022900763359	1.1908396946564885	-0.08845577211394302	0.39730134932533734	0.08995502248875561	
1.708950561890322E12	2.119565217391304	-6.456521739130435	3.3369565217391304	3931.135531135531	128.0	128.0	8.505159438271455	24.667400082039848	33.1725595203113	479.5014422537616	575.8481491623103	-3.465648854961832	6.3969465648854955	1.129770992366412	-0.08095952023988005	0.42278860569715143	0.08995502248875561	
1.7089505619098538E12	2.130434782608696	-6.489130434782608	3.434782608695652	3906.227106227106	128.0	128.0	8.513886155353326	24.669203122759242	33.18308927811257	479.5010816456177	575.8423794320082	-3.3740458015267176	6.961832061068702	0.7480916030534351	-0.095952023988006	0.41079460269865065	0.0944527736131934	
1.7089505619293855E12	2.130434782608696	-6.510869565217391	3.402173913043478	3929.6703296703295	128.0	128.0	8.52686804853297	24.68038197521949	33.20725002375246	479.5002161860724	575.8221132543223	-3.633587786259542	7.6183206106870225	0.7633587786259541	-0.07796101949025487	0.4197901049475262	0.095952023988006	
1.7089505619489172E12	2.108695652173913	-6.489130434782608	3.3478260869565215	3929.6703296703295	128.0	128.0	8.541292374288128	24.667400082039848	33.208692456327974	479.49913436164076	575.8153338212173	-1.8625954198473282	7.511450381679389	0.6259541984732824	-0.08545727136431784	0.40629685157421286	0.10644677661169415	
1.708950561968449E12	2.108695652173913	-6.413043478260869	3.3804347826086953	3920.879120879121	128.0	128.0	8.54417723943916	24.644970255490577	33.189147494929735	479.4994949697846	575.8233393220114	-2.0	7.511450381679389	1.0687022900763359	-0.0914542728635682	0.4077961019490255	0.08995502248875561	
1.7089505619879807E12	2.108695652173913	-6.4021739130434785	3.391304347826087	3903.296703296703	128.0	128.0	8.546485131559985	24.644104795945267	33.19058992750525	479.5014422537616	575.8101410639455	-2.8702290076335877	7.572519083969465	1.1908396946564885	-0.08395802098950525	0.4077961019490255	0.07946026986506746	
1.7089505620075125E12	2.0760869565217392	-6.413043478260869	3.391304347826087	3929.6703296703295	128.0	128.0	8.557087010990026	24.633142308371347	33.19022931936137	479.50014406444365	575.8028567794391	-2.4885496183206106	7.358778625954198	1.083969465648855	-0.08395802098950525	0.41529235382308843	0.09745127436281859	
1.7089505620270442E12	2.0978260869565215	-6.434782608695652	3.402173913043478	3929.6703296703295	128.0	128.0	8.563794322466174	24.617131306783122	33.180925629249295	479.5017307402767	575.8008373738334	-2.33587786259542	6.99236641221374	1.1755725190839694	-0.08995502248875561	0.41379310344827586	0.10344827586206896	
1.708950562046576E12	2.0978260869565215	-6.423913043478261	3.4130434782608696	3929.6703296703295	128.0	128.0	8.565669484814345	24.617059185154346	33.18272866996869	479.50064891584503	575.7923270216378	-3.2519083969465647	6.870229007633587	0.7786259541984732	-0.08095952023988005	0.42278860569715143	0.09745127436281859	
1.7089505620661077E12	2.108695652173913	-6.456521739130435	3.4239130434782608	3904.7619047619046	128.0	128.0	8.572304674661718	24.609558535761664	33.18186321042338	479.5028846863371	575.7982409951975	-3.709923664122137	7.114503816793893	0.9007633587786259	-0.0914542728635682	0.42278860569715143	0.09745127436281859	
1.7089505620856394E12	2.130434782608696	-6.413043478260869	3.3152173913043477	3929.6703296703295	128.0	128.0	8.582185337804	24.60263485939919	33.18482019720319	479.50252407819323	575.8031452659542	-3.9389312977099236	6.671755725190839	0.9007633587786259	-0.08545727136431784	0.416791604197901	0.09895052473763118	
1.7089505621051711E12	2.119565217391304	-6.413043478260869	3.3369565217391304	3929.6703296703295	128.0	128.0	8.587450216704633	24.599605750990605	33.18705596769524	479.5046877270565	575.801270103606	-3.2519083969465647	6.030534351145038	0.4580152671755725	-0.08845577211394302	0.4077961019490255	0.08695652173913043	
1.708950562124703E12	2.130434782608696	-6.4021739130434785	3.3369565217391304	3917.948717948718	128.0	128.0	8.595239352612419	24.577825019100317	33.173064371712734	479.5049040919428	575.8077610501958	-3.297709923664122	6.488549618320611	1.1603053435114503	-0.09745127436281859	0.40929535232383807	0.09895052473763118	
1.7089505621442346E12	2.119565217391304	-6.4021739130434785	3.358695652173913	3929.6703296703295	128.0	128.0	8.603244853406531	24.57299286997234	33.17623772337887	479.5056253082306	575.7931924811832	-3.5572519083969465	6.564885496183206	0.6717557251908397	-0.06596701649175413	0.41829085457271364	0.10494752623688156	
1.7089505621637664E12	2.119565217391304	-6.413043478260869	3.3369565217391304	3929.6703296703295	128.0	128.0	8.592498730718939	24.57140619413927	33.16390492485821	479.5068513759198	575.7916058053501	-3.6488549618320607	6.885496183206107	0.8244274809160305	-0.08245877061469264	0.4197901049475262	0.095952023988006	
1.708950562183298E12	2.108695652173913	-6.4021739130434785	3.391304347826087	3928.205128205128	128.0	128.0	8.594301771438333	24.566501923382518	33.16080369482085	479.50742834895	575.7915336837214	-3.633587786259542	6.809160305343511	0.7175572519083969	-0.08845577211394302	0.4077961019490255	0.0944527736131934	
1.7089505622028298E12	2.0869565217391304	-6.445652173913043	3.3478260869565215	3929.6703296703295	128.0	128.0	8.601874542459791	24.570468612965186	33.172343155424976	479.5081495652377	575.7836724261847	-3.7709923664122136	7.0534351145038165	0.5038167938931297	-0.08245877061469264	0.41379310344827586	0.08845577211394302	
1.7089505622223616E12	2.119565217391304	-6.380434782608695	3.369565217391304	3922.344322344322	128.0	128.0	8.595599960756298	24.556116408838804	33.1517163695951	479.51024109247226	575.7923270216378	-3.3740458015267176	6.809160305343511	0.6106870229007634	-0.08545727136431784	0.40629685157421286	0.095952023988006	
1.7089505622418933E12	2.0978260869565215	-6.423913043478261	3.3369565217391304	3929.6703296703295	128.0	128.0	8.605264259012253	24.560587949822903	33.165852208835155	479.510313214101	575.7913894404637	-3.633587786259542	6.702290076335878	0.6106870229007634	-0.08845577211394302	0.41529235382308843	0.08695652173913043	
1.708950562261425E12	2.0978260869565215	-6.423913043478261	3.3369565217391304	3929.6703296703295	128.0	128.0	8.603677583179186	24.55020243527919	33.15388001845837	479.50988048432833	575.7886488185703	-3.3893129770992365	6.519083969465648	0.8549618320610687	-0.08395802098950525	0.42278860569715143	0.08995502248875561	
1.7089505622809568E12	2.119565217391304	-6.391304347826087	3.358695652173913	3917.948717948718	128.0	128.0	8.603244853406531	24.54948121899143	33.15272607239796	479.51139503853267	575.7939858190997	-3.297709923664122	6.671755725190839	0.6259541984732824	-0.10344827586206896	0.42278860569715143	0.08995502248875561	
1.7089505623004885E12	2.0978260869565215	-6.4021739130434785	3.3804347826086953	3931.135531135531	128.0	128.0	8.593219947006697	24.549048489218777	33.14226843622547	479.51218837644916	575.7900912511458	-3.1755725190839694	6.564885496183206	0.3511450381679389	-0.07646176911544228	0.41829085457271364	0.0944527736131934	
1.7089505623200203E12	2.108695652173913	-6.423913043478261	3.3260869565217392	3929.6703296703295	128.0	128.0	8.607067299731648	24.540033285621803	33.14710058535345	479.5134144441384	575.7949955219026	-3.5114503816793894	6.748091603053435	0.5190839694656488	-0.07796101949025487	0.41379310344827586	0.09295352323838081	
1.708950562339552E12	2.141304347826087	-6.434782608695652	3.3804347826086953	3929.6703296703295	128.0	128.0	8.605120015754702	24.537653271872202	33.1427732876269	479.5137029306535	575.7926876297818	-4.045801526717557	6.458015267175572	0.7938931297709924	-0.09895052473763118	0.41529235382308843	0.08695652173913043	
1.7089505623590837E12	2.119565217391304	-6.423913043478261	3.3478260869565215	3929.6703296703295	128.0	128.0	8.600792718028154	24.538951461190166	33.13974417921832	479.5142077820549	575.7940579407284	-4.076335877862595	6.519083969465648	0.1984732824427481	-0.08845577211394302	0.41829085457271364	0.10194902548725637	
1.7089505623786155E12	2.108695652173913	-6.413043478260869	3.358695652173913	3923.8095238095234	128.0	128.0	8.60634608344389	24.53577810952403	33.14212419296792	479.51492899834267	575.7933367244407	-3.8167938931297707	6.595419847328244	0.47328244274809156	-0.07646176911544228	0.41079460269865065	0.0944527736131934	
1.7089505623981472E12	2.0978260869565215	-6.413043478260869	3.3478260869565215	3929.6703296703295	128.0	128.0	8.590912054885871	24.580277154478694	33.17118920936456	479.51716476883473	575.7834560612985	-4.2748091603053435	6.748091603053435	0.9770992366412213	-0.10044977511244378	0.41379310344827586	0.08845577211394302	
1.708950562417679E12	2.119565217391304	-6.413043478260869	3.3478260869565215	3929.6703296703295	128.0	128.0	8.631155923742762	24.641580538938115	33.272736462680875	479.5172368904635	575.7898027646307	-4.625954198473282	6.33587786259542	0.4427480916030534	-0.07796101949025487	0.40929535232383807	0.09295352323838081	
1.7089505624372107E12	2.108695652173913	-6.413043478260869	3.402173913043478	3917.948717948718	128.0	128.0	8.617885544048017	24.6106403601933	33.228525904241316	479.5157223362592	575.7731426683835	-4.3206106870229	6.625954198473282	0.41221374045801523	-0.08995502248875561	0.40629685157421286	0.10644677661169415	
1.7089505624567424E12	2.108695652173913	-6.434782608695652	3.3369565217391304	3929.6703296703295	128.0	128.0	8.608509732307164	24.54710120524183	33.15561093754899	479.51730901209226	575.7785517905417	-4.3206106870229	6.1679389312977095	0.7633587786259541	-0.08545727136431784	0.424287856071964	0.09295352323838081	
1.7089505624762742E12	2.108695652173913	-6.4021739130434785	3.3043478260869565	3928.205128205128	128.0	128.0	8.597691487990796	24.513492526232312	33.111184014223106	479.5168041606908	575.7897306430019	-3.7709923664122136	6.763358778625954	0.6870229007633587	-0.09295352323838081	0.40929535232383807	0.095952023988006	
1.708950562495806E12	2.119565217391304	-6.391304347826087	3.25	3928.205128205128	128.0	128.0	8.5890368925377	24.4878893480169	33.0769262405546	479.5189678095541	575.792615508153	-3.9847328244274807	7.435114503816793	0.8549618320610687	-0.08995502248875561	0.4197901049475262	0.09295352323838081	
1.7089505625153376E12	2.108695652173913	-6.358695652173913	3.3152173913043477	3929.6703296703295	128.0	128.0	8.587810824848512	24.487961469645676	33.075772294494186	479.5190399311829	575.7863409264495	-2.9923664122137406	6.977099236641221	0.6717557251908397	-0.08845577211394302	0.41829085457271364	0.08695652173913043	
1.7089505625348694E12	2.119565217391304	-6.380434782608695	3.2391304347826084	3923.8095238095234	128.0	128.0	8.610745502799213	24.412378002688648	33.02312350548786	479.51831871489514	575.858246190339	-2.549618320610687	6.65648854961832	0.5343511450381679	-0.08845577211394302	0.41079460269865065	0.08995502248875561	
1.7089505625544011E12	2.119565217391304	-6.33695652173913	3.293478260869565	3929.6703296703295	128.0	128.0	8.569708296025789	25.731338349740312	34.3010466457661	479.5198332690994	574.898667919477	-1.816793893129771	6.549618320610687	0.7938931297709924	-0.08095952023988005	0.42278860569715143	0.08995502248875561	
1.7089505625739329E12	2.119565217391304	-6.3478260869565215	3.358695652173913	3929.6703296703295	128.0	128.0	8.61081762442799	25.331496039807327	33.942313664235314	479.5175253769786	575.1011854530794	-3.3740458015267176	6.8396946564885495	0.916030534351145	-0.0914542728635682	0.41529235382308843	0.09745127436281859	
1.7089505625934646E12	2.0652173913043477	-6.510869565217391	2.7282608695652173	3916.4835164835163	128.0	128.0	8.691665970285651	24.24476733741371	32.93643330769936	479.51889568792535	575.9308726705161	-5.633587786259541	6.305343511450381	0.9465648854961831	-0.08545727136431784	0.40929535232383807	0.08095952023988005	
1.7089505626129963E12	2.0760869565217392	-6.260869565217391	3.967391304347826	3929.6703296703295	128.0	128.0	8.625241950183147	24.444327884236323	33.06956983441947	479.5178138634937	575.8727426377228	-1.2366412213740459	6.687022900763359	0.1984732824427481	-0.08245877061469264	0.3913043478260869	0.09895052473763118	
1.708950562632528E12	2.119565217391304	-6.434782608695652	2.967391304347826	3929.6703296703295	128.0	128.0	8.598701190793657	24.489980875251405	33.08868206604506	479.5154338497441	575.8670450290496	-8.442748091603054	8.473282442748092	0.9007633587786259	-0.08545727136431784	0.41379310344827586	0.09895052473763118	
1.7089505626520598E12	2.043478260869565	-6.369565217391304	3.2065217391304346	3928.205128205128	128.0	128.0	8.578362891478884	24.51435798577762	33.092720877256504	479.5157223362592	575.8625013664367	-2.6259541984732824	8.427480916030534	1.0687022900763359	-0.0914542728635682	0.41529235382308843	0.07946026986506746	
1.7089505626715916E12	2.0543478260869565	-6.456521739130435	3.4782608695652173	3931.135531135531	128.0	128.0	8.584998081326257	24.542269056113852	33.12726713744011	479.5139914171686	575.8626456096943	-5.007633587786259	6.488549618320611	1.3740458015267174	-0.08995502248875561	0.424287856071964	0.09295352323838081	
1.7089505626911233E12	2.152173913043478	-6.510869565217391	3.1956521739130435	3904.7619047619046	128.0	128.0	8.596104812157728	24.558712787474732	33.15481759963246	479.5136308090247	575.87880085454	-3.068702290076336	5.984732824427481	1.129770992366412	-0.08095952023988005	0.41529235382308843	0.09745127436281859	
1.708950562710655E12	2.130434782608696	-6.413043478260869	3.2717391304347827	3929.6703296703295	128.0	128.0	8.601513934315912	24.585181425235447	33.18669535955136	479.51074594387364	575.8754832596163	1.282442748091603	5.908396946564885	1.0687022900763359	-0.08995502248875561	0.4017991004497751	0.10344827586206896	
1.7089505627301868E12	2.141304347826087	-6.3478260869565215	3.260869565217391	3929.6703296703295	128.0	128.0	8.622717693175995	24.640715079392805	33.2634327725688	479.50894290315426	575.912265290292	-1.7251908396946565	6.641221374045801	1.114503816793893	-0.08545727136431784	0.40629685157421286	0.09895052473763118	
1.7089505627497185E12	2.152173913043478	-6.380434782608695	3.282608695652174	3916.4835164835163	128.0	128.0	8.63786323521891	24.708942140214702	33.34680537543361	479.5082938084953	575.931882373319	-3.282442748091603	6.549618320610687	1.2671755725190839	-0.09295352323838081	0.40629685157421286	0.07796101949025487	
1.7089505627692502E12	2.130434782608696	-6.391304347826087	3.3152173913043477	3931.135531135531	128.0	128.0	8.679549536651319	24.78769895883786	33.46724849548918	479.5084380517528	575.9531582538078	-2.610687022900763	6.1679389312977095	1.0687022900763359	-0.07796101949025487	0.41379310344827586	0.08845577211394302	
1.708950562788782E12	2.130434782608696	-6.434782608695652	3.3478260869565215	3929.6703296703295	128.0	128.0	8.695776903125871	24.91203664684733	33.6078135499732	479.5062022812608	575.9489751993389	-2.229007633587786	6.045801526717557	0.9465648854961831	-0.10344827586206896	0.42278860569715143	0.0944527736131934	
1.7089505628083137E12	2.141304347826087	-6.456521739130435	3.369565217391304	3929.6703296703295	128.0	128.0	8.673058590061498	24.94456350142521	33.61762209148671	479.50598591637447	575.914501060784	-2.564885496183206	6.702290076335878	0.9312977099236641	-0.09295352323838081	0.40929535232383807	0.08845577211394302	
1.7089505628278455E12	2.141304347826087	-6.478260869565217	3.3260869565217392	3926.7399267399264	128.0	128.0	8.601297569429585	24.82801494932353	33.429312518753115	479.5043271189126	575.8362490935623	-2.3664122137404577	6.442748091603053	1.0381679389312977	-0.09745127436281859	0.41379310344827586	0.095952023988006	
1.7089505628473772E12	2.119565217391304	-6.445652173913043	3.369565217391304	3925.274725274725	128.0	128.0	8.5547791188692	24.705985153434895	33.260764272304094	479.506130159632	575.7988179682277	-2.2442748091603053	6.641221374045801	0.9770992366412213	-0.08845577211394302	0.41529235382308843	0.0944527736131934	
1.708950562866909E12	2.0978260869565215	-6.434782608695652	3.3804347826086953	3929.6703296703295	128.0	128.0	8.49960607285572	24.60018272402081	33.09978879687653	479.5059137947457	575.775883290277	-3.32824427480916	6.5038167938931295	0.9312977099236641	-0.08095952023988005	0.41829085457271364	0.07946026986506746	
1.7089505628864404E12	2.0978260869565215	-6.456521739130435	3.260869565217391	3929.6703296703295	128.0	128.0	8.488499342024248	24.568449207359457	33.056948549383705	479.5041828756551	575.774585100959	-3.541984732824427	6.305343511450381	0.9007633587786259	-0.08845577211394302	0.41829085457271364	0.10194902548725637	
1.7089505629059722E12	2.119565217391304	-6.315217391304348	3.6956521739130435	3915.0183150183148	128.0	128.0	8.492610274864468	24.54457694823467	33.03718722309914	479.5059137947457	575.7728541818684	-1.5725190839694656	6.916030534351145	0.9007633587786259	-0.095952023988006	0.42278860569715143	0.08695652173913043	
1.708950562925504E12	2.0978260869565215	-6.467391304347826	3.119565217391304	3929.6703296703295	128.0	128.0	8.476382908389915	24.551212138082043	33.02759504647196	479.50540894334426	575.7801384663748	-4.854961832061068	6.351145038167939	0.9923664122137404	-0.09295352323838081	0.416791604197901	0.09295352323838081	
1.7089505629450356E12	2.0652173913043477	-6.413043478260869	3.369565217391304	3928.205128205128	128.0	128.0	8.479844746571153	24.54695696198427	33.026801708555425	479.5049040919428	575.773647519785	-2.045801526717557	6.3206106870229	1.0687022900763359	-0.08545727136431784	0.4197901049475262	0.09295352323838081	
1.7089505629645674E12	2.108695652173913	-6.4021739130434785	3.3804347826086953	3928.205128205128	128.0	128.0	8.47133439437561	24.578978965160722	33.05031335953633	479.50598591637447	575.7928318730393	-3.2061068702290076	6.961832061068702	0.9770992366412213	-0.08395802098950525	0.42278860569715143	0.08995502248875561	
1.708950562984099E12	2.130434782608696	-6.467391304347826	3.3804347826086953	3928.205128205128	128.0	128.0	8.470541056459076	24.589580844590763	33.06012190104984	479.5049040919428	575.7832396964121	-3.847328244274809	6.595419847328244	1.0076335877862594	-0.08545727136431784	0.41379310344827586	0.08095952023988005	
1.7089505630036309E12	2.130434782608696	-6.467391304347826	3.4130434782608696	3906.227106227106	128.0	128.0	8.46945923202744	24.5975142237561	33.06697345578354	479.5049762135716	575.7911730755774	-3.7709923664122136	7.297709923664121	0.4580152671755725	-0.09895052473763118	0.41079460269865065	0.08695652173913043	
1.7089505630231626E12	2.108695652173913	-6.456521739130435	3.3260869565217392	3929.6703296703295	128.0	128.0	8.475805935359709	24.591456006938934	33.06726194229864	479.5052647000867	575.7771814795949	-3.847328244274809	7.526717557251908	1.0229007633587786	-0.08845577211394302	0.41079460269865065	0.08395802098950525	
1.7089505630426943E12	2.0978260869565215	-6.445652173913043	3.3478260869565215	3929.6703296703295	128.0	128.0	8.475373205587054	24.576021978380915	33.05139518396797	479.50576955148813	575.7627571538397	-3.465648854961832	7.648854961832061	0.8396946564885496	-0.09745127436281859	0.40929535232383807	0.09295352323838081	
1.708950563062226E12	2.0869565217391304	-6.413043478260869	3.3260869565217392	3913.5531135531132	128.0	128.0	8.464627082899462	24.573281356487435	33.0379084393869	479.50338953773854	575.7696087085735	-3.6488549618320607	7.312977099236641	0.9312977099236641	-0.08995502248875561	0.41379310344827586	0.08095952023988005	
1.7089505630817578E12	2.108695652173913	-6.4021739130434785	3.3260869565217392	3929.6703296703295	128.0	128.0	8.473353799981332	24.559866733535138	33.03322053351647	479.502596199822	575.7569874235377	-3.6946564885496183	7.2824427480916025	0.8702290076335878	-0.09745127436281859	0.40929535232383807	0.07796101949025487	
1.7089505631012896E12	2.119565217391304	-6.434782608695652	3.3478260869565215	3931.135531135531	128.0	128.0	8.45986705540026	24.560299463307793	33.02016651870805	479.50310105122344	575.7564104505075	-3.801526717557252	6.854961832061068	1.2213740458015268	-0.07796101949025487	0.40629685157421286	0.09295352323838081	
1.7089505631208213E12	2.119565217391304	-6.445652173913043	3.402173913043478	3929.6703296703295	128.0	128.0	8.449986392257976	24.56037158493657	33.010357977194545	479.5049762135716	575.7554728693334	-3.450381679389313	6.748091603053435	0.8854961832061068	-0.08245877061469264	0.4197901049475262	0.08845577211394302	
1.708950563140353E12	2.0978260869565215	-6.467391304347826	3.3152173913043477	3929.6703296703295	128.0	128.0	8.462030704263533	24.55676550349778	33.01879620776131	479.5041828756551	575.7493425308875	-3.3587786259541983	7.099236641221374	0.9465648854961831	-0.0914542728635682	0.41079460269865065	0.10194902548725637	
1.7089505631598848E12	2.0978260869565215	-6.445652173913043	3.3804347826086953	3906.227106227106	128.0	128.0	8.445875459417756	24.559361882133707	33.005237341551464	479.5037501458824	575.7464576657364	-2.687022900763359	6.931297709923664	0.8702290076335878	-0.08395802098950525	0.4077961019490255	0.07646176911544228	
1.7089505631794165E12	2.130434782608696	-6.434782608695652	3.293478260869565	3903.296703296703	128.0	128.0	8.45539551441616	24.557991571186967	33.01338708560313	479.5062744028896	575.7494146525163	-3.114503816793893	6.931297709923664	0.7786259541984732	-0.08095952023988005	0.41079460269865065	0.08695652173913043	
1.7089505631989482E12	2.141304347826087	-6.4021739130434785	3.3369565217391304	3931.135531135531	128.0	128.0	8.453808838583093	24.563689179860255	33.01749801844335	479.5046877270565	575.7393176244876	-2.5343511450381677	6.7328244274809155	1.0534351145038168	-0.08845577211394302	0.41079460269865065	0.10494752623688156	
1.70895056321848E12	2.108695652173913	-6.423913043478261	3.3478260869565215	3913.5531135531132	128.0	128.0	8.454169446726972	24.570324369707627	33.0244938164346	479.5047598486853	575.7306630290345	-2.6259541984732824	6.534351145038167	0.6564885496183206	-0.08395802098950525	0.41529235382308843	0.08995502248875561	
1.7089505632380117E12	2.108695652173913	-6.423913043478261	3.369565217391304	3929.6703296703295	128.0	128.0	8.448183351538582	24.565203734064546	33.01338708560313	479.50454348379895	575.7378751919122	-3.1908396946564883	6.442748091603053	0.5801526717557252	-0.09295352323838081	0.40929535232383807	0.09295352323838081	
1.7089505632575435E12	2.108695652173913	-6.445652173913043	3.3478260869565215	3929.6703296703295	128.0	128.0	8.463545258467825	24.554962462778384	33.01850772124621	479.50382226751117	575.7317448534661	-3.480916030534351	6.702290076335878	0.8702290076335878	-0.08995502248875561	0.4017991004497751	0.09295352323838081	
1.7089505632770752E12	2.0978260869565215	-6.467391304347826	3.402173913043478	3928.205128205128	128.0	128.0	8.455828244188815	24.568088599215578	33.02391684340439	479.50411075402627	575.7381636784272	-3.6488549618320607	6.580152671755725	0.6259541984732824	-0.08845577211394302	0.4077961019490255	0.09745127436281859	
1.708950563296607E12	2.119565217391304	-6.391304347826087	3.260869565217391	3929.6703296703295	128.0	128.0	8.454457933242075	24.56477100429189	33.01922893753397	479.5037501458824	575.7259751231641	-3.5725190839694654	6.6106870229007635	0.9770992366412213	-0.07346326836581708	0.41829085457271364	0.07946026986506746	
1.7089505633161387E12	2.0978260869565215	-6.489130434782608	3.3804347826086953	3904.7619047619046	128.0	128.0	8.471983489034592	24.580493519365014	33.052477008399606	479.5036059026249	575.7220805552103	-2.396946564885496	6.793893129770992	0.7786259541984732	-0.08245877061469264	0.40929535232383807	0.08845577211394302	
1.7089505633356704E12	2.130434782608696	-6.489130434782608	3.402173913043478	3929.6703296703295	128.0	128.0	8.481503544032996	24.551140016453267	33.032643560486264	479.50411075402627	575.7300139343755	-2.4580152671755724	6.534351145038167	0.2748091603053435	-0.08245877061469264	0.416791604197901	0.07796101949025487	
1.7089505633552021E12	2.0978260869565215	-6.510869565217391	3.391304347826087	3931.135531135531	128.0	128.0	8.48229688194953	24.556693381869003	33.03899026381853	479.50396651076875	575.7274175557396	-2.8854961832061066	6.045801526717557	0.47328244274809156	-0.08845577211394302	0.41529235382308843	0.08395802098950525	
1.708950563374734E12	2.108695652173913	-6.467391304347826	3.4130434782608696	3913.5531135531132	128.0	128.0	8.503140032665733	24.56549222057965	33.06863225324538	479.50295680796586	575.7251817852476	-2.351145038167939	6.763358778625954	0.2900763358778626	-0.08545727136431784	0.416791604197901	0.08845577211394302	
1.7089505633942656E12	2.119565217391304	-6.467391304347826	3.3369565217391304	3931.135531135531	128.0	128.0	8.5273728999344	24.557486719785537	33.084859619719936	479.50093740236014	575.7136423246435	-1.5267175572519083	6.778625954198473	0.2900763358778626	-0.095952023988006	0.4077961019490255	0.07346326836581708	
1.7089505634137974E12	2.130434782608696	-6.445652173913043	3.369565217391304	3929.6703296703295	128.0	128.0	8.530690494858087	24.5495533406202	33.080243835478285	479.5023077133069	575.7284993801712	-1.0381679389312977	6.717557251908397	0.7786259541984732	-0.095952023988006	0.41079460269865065	0.0944527736131934	
1.708950563433329E12	2.141304347826087	-6.456521739130435	3.4239130434782608	3929.6703296703295	128.0	128.0	8.540931766144249	24.552293962513687	33.093225728657934	479.5027404430796	575.7127768650981	-2.427480916030534	6.671755725190839	0.6106870229007634	-0.08545727136431784	0.4017991004497751	0.10344827586206896	
1.7089505634528608E12	2.119565217391304	-6.456521739130435	3.402173913043478	3929.6703296703295	128.0	128.0	8.557159132618802	24.53462416346362	33.09178329608242	479.50310105122344	575.7154453653628	-3.49618320610687	6.381679389312977	0.6870229007633587	-0.0914542728635682	0.4002998500749625	0.09745127436281859	
1.7089505634723926E12	2.141304347826087	-6.445652173913043	3.358695652173913	3928.205128205128	128.0	128.0	8.56199128174678	24.528854433161555	33.09084571490833	479.5030289295947	575.7072956213112	-3.145038167938931	6.625954198473282	0.732824427480916	-0.08545727136431784	0.416791604197901	0.09295352323838081	
1.7089505634919243E12	2.108695652173913	-6.423913043478261	3.4130434782608696	3929.6703296703295	128.0	128.0	8.579661080796848	24.530368987365847	33.11003006816269	479.5027404430796	575.7176090142261	-2.1374045801526718	6.7328244274809155	0.6412213740458015	-0.08245877061469264	0.416791604197901	0.08845577211394302	
1.708950563511456E12	2.119565217391304	-6.4021739130434785	3.358695652173913	3929.6703296703295	128.0	128.0	8.588243554621167	24.543206637287938	33.1314501919091	479.50512045682916	575.7297254478605	-3.0534351145038165	6.458015267175572	0.732824427480916	-0.0914542728635682	0.41529235382308843	0.08695652173913043	
1.7089505635309878E12	2.130434782608696	-6.413043478260869	3.358695652173913	3912.0879120879117	128.0	128.0	8.592210244203836	24.591023277166286	33.18323352137012	479.5052647000867	575.7268405827094	-2.7022900763358777	6.213740458015267	0.5190839694656488	-0.08545727136431784	0.4017991004497751	0.095952023988006	
1.7089505635505195E12	2.130434782608696	-6.423913043478261	3.434782608695652	3931.135531135531	128.0	128.0	8.62004919291129	24.630257443220316	33.250306636131604	479.50894290315426	575.7046992426752	-3.0076335877862594	6.65648854961832	0.47328244274809156	-0.08245877061469264	0.424287856071964	0.10344827586206896	
1.7089505635700513E12	2.119565217391304	-6.380434782608695	3.358695652173913	3931.135531135531	128.0	128.0	8.62452073389539	24.530080500850744	33.15460123474613	479.5084380517528	575.7176090142261	-3.801526717557252	6.259541984732824	0.7633587786259541	-0.08995502248875561	0.41379310344827586	0.09295352323838081	
1.708950563589583E12	2.108695652173913	-6.4021739130434785	3.3369565217391304	3929.6703296703295	128.0	128.0	8.599278163823863	24.517242850928653	33.116521014752514	479.5085822950104	575.7119835271816	-3.679389312977099	6.290076335877862	0.732824427480916	-0.095952023988006	0.4047976011994003	0.08395802098950525	
1.7089505636091147E12	2.119565217391304	-6.413043478260869	3.293478260869565	3929.6703296703295	128.0	128.0	8.58990235208301	24.495173632523255	33.08507598460626	479.5106017006161	575.7266963394519	-3.5114503816793894	7.007633587786259	0.6412213740458015	-0.08395802098950525	0.41079460269865065	0.09745127436281859	
1.7089505636286465E12	2.108695652173913	-6.445652173913043	3.25	3928.205128205128	128.0	128.0	8.6003599882555	24.480460820252993	33.08082080850849	479.51081806550246	575.7350624483898	-4.259541984732825	7.022900763358779	0.5343511450381679	-0.07796101949025487	0.4017991004497751	0.08845577211394302	
1.7089505636481782E12	2.108695652173913	-6.369565217391304	3.3369565217391304	3929.6703296703295	128.0	128.0	8.604398799466944	24.42499928772441	33.02939808719135	479.512260498078	575.7848984938739	-3.5725190839694654	7.068702290076335	0.6412213740458015	-0.09745127436281859	0.41379310344827586	0.08095952023988005	
1.70895056366771E12	2.119565217391304	-6.423913043478261	3.358695652173913	3929.6703296703295	128.0	128.0	8.715466107781662	24.6109288467084	33.32639495449006	479.51052957898736	575.7028962019558	-3.297709923664122	6.687022900763359	0.9770992366412213	-0.07796101949025487	0.4017991004497751	0.09295352323838081	
1.7089505636872417E12	2.141304347826087	-6.423913043478261	3.4456521739130435	3912.0879120879117	128.0	128.0	8.630362585826228	25.756941527955718	34.387304113781944	479.51247686296426	574.8191898845661	-2.8396946564885495	6.946564885496183	0.9770992366412213	-0.07496251874062969	0.4197901049475262	0.09895052473763118	
1.7089505637067734E12	2.0869565217391304	-6.489130434782608	3.1956521739130435	3931.135531135531	128.0	128.0	8.61629886821495	24.45961766953679	33.07591653775174	479.5137029306535	575.5820203521276	-3.9083969465648853	7.297709923664121	0.6106870229007634	-0.08245877061469264	0.40929535232383807	0.08845577211394302	
1.7089505637263052E12	2.0869565217391304	-6.25	3.684782608695652	3928.205128205128	128.0	128.0	8.698589646648127	24.357421321561493	33.05601096820962	479.5150732416002	575.8612031771187	-3.7404580152671754	4.564885496183206	0.732824427480916	-0.08845577211394302	0.41529235382308843	0.09745127436281859	
1.708950563745837E12	2.152173913043478	-6.5	2.717391304347826	3929.6703296703295	128.0	128.0	8.635771707984413	24.473825630405628	33.10959733839004	479.51406353879736	575.8195168756863	-4.717557251908397	9.206106870229007	0.5343511450381679	-0.08095952023988005	0.41529235382308843	0.08695652173913043	
1.7089505637653687E12	2.0978260869565215	-6.25	3.5543478260869565	3929.6703296703295	128.0	128.0	8.620770409199048	24.507073701271267	33.12784411047031	479.5172368904635	575.8251423627308	-2.7022900763358777	10.732824427480915	0.8549618320610687	-0.08845577211394302	0.41529235382308843	0.09745127436281859	
1.7089505637849004E12	2.0217391304347827	-6.489130434782608	3.391304347826087	3906.227106227106	128.0	128.0	8.643272357377095	24.50923735013454	33.15250970751163	479.51673203906205	575.8254308492459	-4.580152671755725	6.99236641221374	1.114503816793893	-0.08245877061469264	0.40929535232383807	0.09295352323838081	
1.7089505638044321E12	2.141304347826087	-6.521739130434782	3.2282608695652173	3929.6703296703295	128.0	128.0	8.64420993855118	24.528133216873798	33.172343155424976	479.51500111997143	575.8205987001179	-4.793893129770992	5.526717557251908	0.9007633587786259	-0.08095952023988005	0.41529235382308843	0.0944527736131934	
1.7089505638239639E12	2.130434782608696	-6.3478260869565215	3.032608695652174	3929.6703296703295	128.0	128.0	8.658850629192667	24.571117707624165	33.22996833681683	479.5144241469412	575.8379078910241	0.9923664122137404	6.122137404580153	0.7786259541984732	-0.08545727136431784	0.416791604197901	0.08845577211394302	
1.7089505638434956E12	2.130434782608696	-6.206521739130435	3.260869565217391	3910.62271062271	128.0	128.0	8.658562142677564	24.5993172644755	33.25787940715306	479.51319807925205	575.8573086091649	3.3893129770992365	6.244274809160305	0.5801526717557252	-0.095952023988006	0.4257871064467766	0.07946026986506746	
1.7089505638630273E12	2.130434782608696	-6.33695652173913	3.4891304347826084	3931.135531135531	128.0	128.0	8.694695078694235	24.673674663743338	33.36836974243757	479.5129817143657	575.890051828629	-0.061068702290076333	6.885496183206107	1.2061068702290076	-0.08095952023988005	0.4077961019490255	0.09745127436281859	
1.708950563882559E12	2.141304347826087	-6.33695652173913	3.4456521739130435	3931.135531135531	128.0	128.0	8.72801527118865	24.758345455926115	33.486360727114764	479.5131259576233	575.9064234383611	-3.450381679389313	6.442748091603053	1.114503816793893	-0.07796101949025487	0.40929535232383807	0.10344827586206896	
1.7089505639020908E12	2.141304347826087	-6.358695652173913	3.4456521739130435	3928.205128205128	128.0	128.0	8.75369057103283	24.909872997984056	33.66356356901689	479.51233261970674	575.9064955599899	-2.6717557251908395	6.3206106870229	0.7480916030534351	-0.08395802098950525	0.41529235382308843	0.08695652173913043	
1.7089505639216226E12	2.130434782608696	-6.456521739130435	3.434782608695652	3929.6703296703295	128.0	128.0	8.743016569974014	24.95913207043792	33.702148640411934	479.5128374711082	575.8656747181028	-4.7328244274809155	6.33587786259542	0.9770992366412213	-0.08845577211394302	0.41529235382308843	0.0944527736131934	
1.7089505639411543E12	2.130434782608696	-6.467391304347826	3.3369565217391304	3929.6703296703295	128.0	128.0	8.676015576841305	24.870710953558795	33.5467265304001	479.51464051182757	575.8082659015973	-4.916030534351145	6.442748091603053	1.2671755725190839	-0.08995502248875561	0.41379310344827586	0.07496251874062969	
1.7089505639606858E12	2.130434782608696	-6.467391304347826	3.3152173913043477	3931.135531135531	128.0	128.0	8.634834126810327	24.737141697066036	33.37197582387636	479.51348656576715	575.7667959650512	-5.450381679389313	6.2748091603053435	0.6259541984732824	-0.07496251874062969	0.4197901049475262	0.07796101949025487	
1.7089505639802175E12	2.130434782608696	-6.413043478260869	3.402173913043478	3931.135531135531	128.0	128.0	8.585647175985239	24.626507118523975	33.21215429450921	479.51492899834267	575.7468182738803	-6.061068702290076	5.984732824427481	0.7022900763358778	-0.0914542728635682	0.41529235382308843	0.08995502248875561	
1.7089505639997493E12	2.108695652173913	-6.423913043478261	3.391304347826087	3910.62271062271	128.0	128.0	8.573891350494785	24.536715690698117	33.1106070411929	479.51377505228226	575.7439334087293	-6.99236641221374	5.984732824427481	0.7480916030534351	-0.08545727136431784	0.40929535232383807	0.08845577211394302	
1.708950564019281E12	2.130434782608696	-6.5	3.043478260869565	3931.135531135531	128.0	128.0	8.560476727542488	24.51443010740639	33.07490683494888	479.515145363229	575.7354951781625	-6.259541984732824	6.152671755725191	0.9007633587786259	-0.08845577211394302	0.41079460269865065	0.0944527736131934	
1.7089505640388127E12	2.108695652173913	-6.423913043478261	3.25	3931.135531135531	128.0	128.0	8.551100915801635	24.508876741990655	33.05997765779229	479.51492899834267	575.7439334087293	-2.351145038167939	5.801526717557252	0.7175572519083969	-0.095952023988006	0.4077961019490255	0.0944527736131934	
1.7089505640583445E12	2.0978260869565215	-6.4021739130434785	3.2717391304347827	3929.6703296703295	128.0	128.0	8.556077308187165	24.50995856642229	33.066035874609454	479.51348656576715	575.7469625171378	-6.122137404580153	5.740458015267175	1.0076335877862594	-0.08395802098950525	0.4077961019490255	0.08695652173913043	
1.7089505640778762E12	2.141304347826087	-6.423913043478261	3.3260869565217392	3929.6703296703295	128.0	128.0	8.553480929551236	24.527916851987463	33.0813977815387	479.5136308090247	575.7547516530457	-3.2213740458015265	6.1679389312977095	0.9465648854961831	-0.08245877061469264	0.41379310344827586	0.09295352323838081	
1.708950564097408E12	2.130434782608696	-6.423913043478261	3.3043478260869565	3906.227106227106	128.0	128.0	8.549730604854895	24.537941758387305	33.0876723632422	479.5142077820549	575.744654625017	-5.511450381679389	6.045801526717557	0.6259541984732824	-0.07796101949025487	0.4017991004497751	0.08095952023988005	
1.7089505641169397E12	2.152173913043478	-6.445652173913043	3.3478260869565215	3901.8315018315016	128.0	128.0	8.552976078149806	24.550563043423068	33.10353912157287	479.51377505228226	575.7357115430489	-4.7328244274809155	6.625954198473282	0.21374045801526717	-0.09295352323838081	0.41379310344827586	0.08845577211394302	
1.7089505641364714E12	2.130434782608696	-6.467391304347826	3.3043478260869565	3929.6703296703295	128.0	128.0	8.563145227807192	24.55496246277839	33.11810769058558	479.5142077820549	575.7381636784272	-5.312977099236641	6.793893129770992	0.8091603053435115	-0.08395802098950525	0.41529235382308843	0.08395802098950525	
1.7089505641560032E12	2.130434782608696	-6.467391304347826	3.2717391304347827	3909.1575091575087	128.0	128.0	8.559467024739627	24.55669338186901	33.116160406608635	479.51406353879736	575.7148683923326	-5.32824427480916	7.0534351145038165	0.4427480916030534	-0.08095952023988005	0.41529235382308843	0.09745127436281859	
1.708950564175535E12	2.108695652173913	-6.423913043478261	3.25	3929.6703296703295	128.0	128.0	8.550235456256326	24.54486543474978	33.095100891006105	479.51500111997143	575.7147962707039	-4.396946564885496	6.7328244274809155	0.9465648854961831	-0.07646176911544228	0.41829085457271364	0.08395802098950525	
1.7089505641950667E12	2.130434782608696	-6.445652173913043	3.1956521739130435	3929.6703296703295	128.0	128.0	8.548216050650604	24.530152622479513	33.078368673130115	479.5162993092894	575.7107574594925	-2.5801526717557253	6.99236641221374	0.9312977099236641	-0.0914542728635682	0.4077961019490255	0.10194902548725637	
1.7089505642145984E12	2.152173913043478	-6.4021739130434785	3.3260869565217392	3928.205128205128	128.0	128.0	8.552326983490824	24.512122215285565	33.06444919877639	479.5169484039484	575.720854487521	-1.7099236641221374	7.007633587786259	0.7480916030534351	-0.08245877061469264	0.41379310344827586	0.09295352323838081	
1.7089505642341301E12	2.141304347826087	-6.445652173913043	3.3804347826086953	3929.6703296703295	128.0	128.0	8.556798524474923	24.51168948551291	33.06848800998783	479.5172368904635	575.7002998233199	-2.030534351145038	6.99236641221374	0.9465648854961831	-0.07346326836581708	0.41079460269865065	0.08695652173913043	
1.7089505642536619E12	2.130434782608696	-6.423913043478261	3.402173913043478	3906.227106227106	128.0	128.0	8.543456023151402	24.513204039717202	33.0566600628686	479.5189678095541	575.7021028640394	-2.9770992366412212	7.038167938931298	1.2671755725190839	-0.06296851574212893	0.40629685157421286	0.09295352323838081	
1.7089505642731936E12	2.130434782608696	-6.423913043478261	3.3043478260869565	3929.6703296703295	128.0	128.0	8.545259063870796	24.51854104024661	33.063800104117405	479.5182465932663	575.6956840390783	-3.068702290076336	7.404580152671755	1.0381679389312977	-0.0914542728635682	0.41829085457271364	0.08995502248875561	
1.7089505642927253E12	2.119565217391304	-6.358695652173913	3.25	3928.205128205128	128.0	128.0	8.533503238380343	24.521858635170297	33.05536187355064	479.5209150935311	575.6958282823358	-3.679389312977099	6.900763358778626	1.2671755725190839	-0.09295352323838081	0.41379310344827586	0.09295352323838081	
1.708950564312257E12	2.0978260869565215	-6.358695652173913	3.260869565217391	3909.1575091575087	128.0	128.0	8.546413009931209	24.508660377104327	33.055073387035534	479.5192562960692	575.7101083648334	-4.427480916030534	6.5038167938931295	0.9007633587786259	-0.10044977511244378	0.40929535232383807	0.08845577211394302	
1.7089505643317888E12	2.0869565217391304	-6.423913043478261	3.293478260869565	3931.135531135531	128.0	128.0	8.54057115800037	24.507290066157587	33.047861224157955	479.51947266095556	575.713137473242	-5.435114503816794	6.6106870229007635	0.9923664122137404	-0.07646176911544228	0.4002998500749625	0.08995502248875561	
1.7089505643513206E12	2.130434782608696	-6.380434782608695	3.3043478260869565	3929.6703296703295	128.0	128.0	8.538768117280975	24.49762576790163	33.036393885182605	479.519328417698	575.7044828777889	-4.748091603053435	6.412213740458015	0.9465648854961831	-0.07796101949025487	0.40929535232383807	0.08095952023988005	
1.7089505643708523E12	2.119565217391304	-6.478260869565217	3.3043478260869565	3929.6703296703295	128.0	128.0	8.535883252129944	24.502241552143282	33.038124804273224	479.51947266095556	575.7003719449488	-4.519083969465648	6.641221374045801	0.732824427480916	-0.11244377811094453	0.40929535232383807	0.10344827586206896	
1.708950564390384E12	2.0978260869565215	-6.456521739130435	3.369565217391304	3929.6703296703295	128.0	128.0	8.522035899404992	24.509742201535964	33.031778100940954	479.51860720141025	575.7159502167643	-3.32824427480916	6.916030534351145	0.564885496183206	-0.08845577211394302	0.4047976011994003	0.08995502248875561	
1.7089505644099158E12	2.108695652173913	-6.445652173913043	3.260869565217391	3906.227106227106	128.0	128.0	8.521531048003562	24.50332337657492	33.02485442457848	479.52004963398576	575.7082332024853	-2.732824427480916	6.3969465648854955	0.5801526717557252	-0.08545727136431784	0.40629685157421286	0.095952023988006	
1.7089505644294475E12	2.119565217391304	-6.413043478260869	3.217391304347826	3931.135531135531	128.0	128.0	8.50371700569594	24.507722795930242	33.01143980162618	479.52098721515983	575.7035452966148	-2.1068702290076335	6.916030534351145	0.47328244274809156	-0.07646176911544228	0.41829085457271364	0.08995502248875561	
1.7089505644489792E12	2.130434782608696	-6.423913043478261	3.260869565217391	3929.6703296703295	128.0	128.0	8.511289776717398	24.50692945801371	33.018219234731106	479.51947266095556	575.7024634721832	-2.8244274809160306	6.916030534351145	0.5343511450381679	-0.0914542728635682	0.42278860569715143	0.08695652173913043	
1.708950564468511E12	2.141304347826087	-6.489130434782608	3.282608695652174	3907.6923076923076	128.0	128.0	8.514535250012308	24.50281852517349	33.017353775185796	479.5210593367886	575.7064301617659	-3.5267175572519083	7.038167938931298	1.0076335877862594	-0.08995502248875561	0.4197901049475262	0.10344827586206896	
1.7089505644880427E12	2.108695652173913	-6.467391304347826	3.293478260869565	3931.135531135531	128.0	128.0	8.50508731664268	24.5039724712339	33.00905978787658	479.5210593367886	575.7116950406665	-3.236641221374046	6.458015267175572	0.732824427480916	-0.08245877061469264	0.40629685157421286	0.08545727136431784	
1.7089505645075745E12	2.1630434782608696	-6.423913043478261	3.293478260869565	3929.6703296703295	128.0	128.0	8.522324385920095	24.52351743263214	33.04584181855223	479.5192562960692	575.6948907011617	-2.8702290076335877	6.3969465648854955	0.6870229007633587	-0.07796101949025487	0.41379310344827586	0.09895052473763118	
1.7089505645271062E12	2.130434782608696	-6.445652173913043	3.293478260869565	3928.205128205128	128.0	128.0	8.506385505960644	24.636387781666258	33.1427732876269	479.5192562960692	575.6902027952913	-2.748091603053435	6.595419847328244	0.7633587786259541	-0.09295352323838081	0.41379310344827586	0.09895052473763118	
1.708950564546638E12	2.141304347826087	-6.4021739130434785	3.3152173913043477	3929.6703296703295	128.0	128.0	8.541148131030576	24.65470667537531	33.19585480640588	479.5207708502735	575.6756342262786	-2.8244274809160306	6.625954198473282	0.7175572519083969	-0.07346326836581708	0.4002998500749625	0.0944527736131934	
1.7089505645661697E12	2.130434782608696	-6.4021739130434785	3.293478260869565	3906.227106227106	128.0	128.0	8.540426914742818	24.555755800694925	33.09618271543774	479.51687628231963	575.6858754975648	-4.33587786259542	6.366412213740458	0.5190839694656488	-0.08395802098950525	0.4047976011994003	0.0944527736131934	
1.7089505645857014E12	2.0652173913043477	-6.369565217391304	3.2282608695652173	3929.6703296703295	128.0	128.0	8.514967979784963	24.525681081495414	33.04064906128038	479.51730901209226	575.6783027265433	-3.099236641221374	6.122137404580153	0.8091603053435115	-0.0914542728635682	0.4077961019490255	0.08995502248875561	
1.7089505646052332E12	2.0978260869565215	-6.3478260869565215	2.967391304347826	3929.6703296703295	128.0	128.0	8.519872250541717	24.508660377104327	33.028532627646044	479.5163714309182	575.6751293748772	-3.282442748091603	6.412213740458015	0.6259541984732824	-0.08995502248875561	0.40929535232383807	0.09295352323838081	
1.708950564624765E12	2.152173913043478	-6.195652173913043	2.8369565217391304	3907.6923076923076	128.0	128.0	8.524343791525817	24.493226348546308	33.017570140072124	479.5142077820549	575.6859476191936	-3.0839694656488548	6.961832061068702	0.07633587786259542	-0.08395802098950525	0.4077961019490255	0.10494752623688156	
1.7089505646442966E12	2.119565217391304	-6.5	3.608695652173913	3929.6703296703295	128.0	128.0	8.532637778835033	24.469498332679073	33.002136111514105	479.51305383599447	575.7000113368048	4.65648854961832	7.206106870229007	0.2900763358778626	-0.08845577211394302	0.41529235382308843	0.08695652173913043	
1.7089505646638284E12	2.141304347826087	-6.532608695652174	3.5217391304347827	3929.6703296703295	128.0	128.0	8.609807921625128	24.958122367635056	33.56793028926018	479.51464051182757	575.3652948576564	-1.3435114503816794	6.854961832061068	0.5343511450381679	-0.08545727136431784	0.40929535232383807	0.095952023988006	
1.70895056468336E12	2.1739130434782608	-6.478260869565217	3.3804347826086953	3928.205128205128	128.0	128.0	8.486552058047302	25.95354508799852	34.44009714604582	479.51348656576715	574.6000122547165	-2.8854961832061066	8.16793893129771	0.7175572519083969	-0.08095952023988005	0.42278860569715143	0.08695652173913043	
1.7089505647028918E12	2.152173913043478	-6.4021739130434785	3.1956521739130435	3929.6703296703295	128.0	128.0	8.520737710087028	24.648287850414263	33.16902556050129	479.5135586873959	575.3627706006492	-5.129770992366412	5.419847328244274	0.916030534351145	-0.08095952023988005	0.41829085457271364	0.08395802098950525	
1.7089505647224236E12	2.0978260869565215	-6.195652173913043	3.75	3929.6703296703295	128.0	128.0	8.610096408140231	24.37451414758136	32.98461055572159	479.51233261970674	575.8048040634161	-2.015267175572519	8.48854961832061	0.24427480916030533	-0.08545727136431784	0.416791604197901	0.095952023988006	
1.7089505647419553E12	2.2065217391304346	-6.565217391304348	2.8260869565217392	3929.6703296703295	128.0	128.0	8.538407509137096	24.498923957219596	33.03733146635669	479.5119720115629	575.7602328968326	-3.480916030534351	9.114503816793892	1.3282442748091603	-0.07646176911544228	0.41829085457271364	0.0944527736131934	
1.708950564761487E12	2.1847826086956523	-6.304347826086956	3.3260869565217392	3929.6703296703295	128.0	128.0	8.521963777776216	24.53072959550972	33.05269337328593	479.51074594387364	575.7708347762626	-3.0229007633587783	9.206106870229007	1.5419847328244274	-0.10794602698650674	0.416791604197901	0.09295352323838081	
1.7089505647810188E12	2.043478260869565	-6.445652173913043	3.358695652173913	3907.6923076923076	128.0	128.0	8.510640682058416	24.550707286680613	33.06134796873903	479.51052957898736	575.7666517217937	-4.793893129770992	7.038167938931298	0.9312977099236641	-0.09295352323838081	0.39430284857571213	0.07796101949025487	
1.7089505648005505E12	2.141304347826087	-6.5978260869565215	3.25	3931.135531135531	128.0	128.0	8.511145533459846	24.586263249667084	33.09740878312693	479.5077168354651	575.775883290277	-2.717557251908397	6.488549618320611	0.9923664122137404	-0.07796101949025487	0.416791604197901	0.08095952023988005	
1.7089505648200823E12	2.1847826086956523	-6.478260869565217	3.3043478260869565	3931.135531135531	128.0	128.0	8.520449223571925	24.59917302121795	33.11962224478987	479.50879865989674	575.7869178994797	0.4580152671755725	6.473282442748092	0.6717557251908397	-0.095952023988006	0.41079460269865065	0.08695652173913043	
1.708950564839614E12	2.130434782608696	-6.445652173913043	3.3260869565217392	3929.6703296703295	128.0	128.0	8.5318444409185	24.637613849355446	33.169458290273944	479.5072841056924	575.7982409951975	-2.030534351145038	6.488549618320611	1.1755725190839694	-0.09745127436281859	0.4197901049475262	0.095952023988006	
1.7089505648591458E12	2.130434782608696	-6.413043478260869	3.2717391304347827	3912.0879120879117	128.0	128.0	8.563289471064744	24.694012963058114	33.257302434122856	479.5043271189126	575.8645928936712	-2.1221374045801524	6.427480916030534	1.3435114503816794	-0.10044977511244378	0.4197901049475262	0.08095952023988005	
1.7089505648786775E12	2.130434782608696	-6.369565217391304	3.2717391304347827	3907.6923076923076	128.0	128.0	8.594950866097316	24.77594313334741	33.370893999444725	479.502596199822	575.9020961406346	-1.83206106870229	6.106870229007633	1.3129770992366412	-0.08545727136431784	0.40629685157421286	0.08545727136431784	
1.7089505648982092E12	2.108695652173913	-6.380434782608695	3.3369565217391304	3929.6703296703295	128.0	128.0	8.630651072341331	24.925811877943502	33.55646295028483	479.50180286190545	575.905197370672	-2.5343511450381677	6.641221374045801	0.8854961832061068	-0.08545727136431784	0.40929535232383807	0.08545727136431784	
1.708950564917741E12	2.141304347826087	-6.423913043478261	3.369565217391304	3929.6703296703295	128.0	128.0	8.634762005181551	24.992019533159684	33.626781538341234	479.5005767942163	575.8631504610956	-2.4122137404580153	7.145038167938931	1.450381679389313	-0.09295352323838081	0.39430284857571213	0.09295352323838081	
1.7089505649372727E12	2.141304347826087	-6.456521739130435	3.3152173913043477	3907.6923076923076	128.0	128.0	8.575838634471731	24.936053149229664	33.511891783701394	479.5000719428148	575.778119060769	-2.2900763358778624	6.99236641221374	1.450381679389313	-0.08395802098950525	0.41079460269865065	0.09745127436281859	
1.7089505649568044E12	2.141304347826087	-6.467391304347826	3.358695652173913	3929.6703296703295	128.0	128.0	8.524271669897042	24.796425675919735	33.320697345816775	479.49870163186813	575.7163108249082	-1.3893129770992365	7.0534351145038165	0.9312977099236641	-0.08245877061469264	0.40629685157421286	0.08545727136431784	
1.7089505649763362E12	2.108695652173913	-6.423913043478261	3.3152173913043477	3929.6703296703295	128.0	128.0	8.466934975020287	24.650523620906313	33.1174585959266	479.4981967804667	575.6884718762007	-1.4351145038167938	7.129770992366412	1.2671755725190839	-0.0914542728635682	0.41829085457271364	0.0944527736131934	
1.708950564995868E12	2.0978260869565215	-6.434782608695652	3.3369565217391304	3928.205128205128	128.0	128.0	8.447101527106945	24.60386092708837	33.050962454195314	479.49927860489834	575.6808269835504	-1.2519083969465647	6.687022900763359	1.0534351145038168	-0.07646176911544228	0.39280359820089955	0.0944527736131934	
1.7089505650153997E12	2.0978260869565215	-6.5	3.1630434782608696	3929.6703296703295	128.0	128.0	8.440105729115693	24.57594985675214	33.01605558586783	479.49588888834586	575.6739754288168	-1.3282442748091603	6.916030534351145	1.1450381679389312	-0.09295352323838081	0.4017991004497751	0.095952023988006	
1.7089505650349312E12	2.130434782608696	-6.380434782608695	3.510869565217391	3928.205128205128	128.0	128.0	8.433975390669751	24.574868032320502	33.00884342299025	479.4963937397473	575.6908518899503	-3.7404580152671754	5.923664122137405	0.9007633587786259	-0.08095952023988005	0.4002998500749625	0.07646176911544228	
1.708950565054463E12	2.0978260869565215	-6.380434782608695	3.3369565217391304	3929.6703296703295	128.0	128.0	8.447822743394703	24.572415896942125	33.02023864033683	479.494230090884	575.688399754572	-2.2748091603053435	7.145038167938931	0.7786259541984732	-0.0914542728635682	0.4077961019490255	0.09745127436281859	
1.7089505650739946E12	2.0760869565217392	-6.445652173913043	3.3369565217391304	3928.205128205128	128.0	128.0	8.44443302684224	24.59426875046119	33.03870177730343	479.49444645577034	575.6922943225259	-4.473282442748092	6.977099236641221	0.7633587786259541	-0.08845577211394302	0.41829085457271364	0.0944527736131934	
1.7089505650935264E12	2.119565217391304	-6.456521739130435	3.3260869565217392	3906.227106227106	128.0	128.0	8.442846351009173	24.60573608943654	33.04858244044571	479.4945185773991	575.6928712955561	-2.396946564885496	7.007633587786259	0.916030534351145	-0.09295352323838081	0.416791604197901	0.09295352323838081	
1.708950565113058E12	2.119565217391304	-6.478260869565217	3.358695652173913	3929.6703296703295	128.0	128.0	8.445947581046532	24.61107308996595	33.05702067101248	479.49386948274014	575.6901306736626	-3.3435114503816794	7.49618320610687	0.9007633587786259	-0.08095952023988005	0.41829085457271364	0.08395802098950525	
1.7089505651325898E12	2.130434782608696	-6.456521739130435	3.4130434782608696	3929.6703296703295	128.0	128.0	8.448760324568788	24.620593144964353	33.06935346953314	479.49112886084663	575.6827021458986	-3.6030534351145036	7.603053435114504	0.9312977099236641	-0.08845577211394302	0.41529235382308843	0.0944527736131934	
1.7089505651521216E12	2.119565217391304	-6.456521739130435	3.391304347826087	3928.205128205128	128.0	128.0	8.450347000401855	24.60148091333877	33.051827913740624	479.494230090884	575.6698644959765	-3.6030534351145036	7.587786259541985	0.7786259541984732	-0.08095952023988005	0.4077961019490255	0.09745127436281859	
1.7089505651716533E12	2.0652173913043477	-6.434782608695652	3.4130434782608696	3929.6703296703295	128.0	128.0	8.458713109339847	24.60559184617899	33.064304955518836	479.49235492853586	575.6408716012087	-3.9389312977099236	7.480916030534351	0.9465648854961831	-0.07796101949025487	0.416791604197901	0.09295352323838081	
1.708950565191185E12	2.119565217391304	-6.423913043478261	3.282608695652174	3909.1575091575087	128.0	128.0	8.455828244188815	24.591960858340364	33.04778910252918	479.49120098247545	575.6428188851856	-4.427480916030534	7.129770992366412	1.1755725190839694	-0.08845577211394302	0.4047976011994003	0.08695652173913043	
1.7089505652107168E12	2.108695652173913	-6.434782608695652	3.3369565217391304	3901.8315018315016	128.0	128.0	8.457703406536986	24.585109303606664	33.04281271014365	479.49170583387684	575.6444776826474	-4.412213740458015	6.65648854961832	1.1755725190839694	-0.09295352323838081	0.4197901049475262	0.095952023988006	
1.7089505652302485E12	2.130434782608696	-6.5	3.402173913043478	3929.6703296703295	128.0	128.0	8.464266474755583	24.57558924860826	33.03985572336384	479.49228280690704	575.640438871436	-4.488549618320611	6.809160305343511	0.6870229007633587	-0.0914542728635682	0.42278860569715143	0.08395802098950525	
1.7089505652497803E12	2.1630434782608696	-6.543478260869565	3.4239130434782608	3907.6923076923076	128.0	128.0	8.473930773011539	24.571189829252937	33.045120602264475	479.49314826645235	575.6620753600688	-3.4351145038167936	6.961832061068702	0.7175572519083969	-0.07496251874062969	0.4197901049475262	0.08845577211394302	
1.708950565269312E12	2.119565217391304	-6.543478260869565	3.3260869565217392	3931.135531135531	128.0	128.0	8.476599273276243	24.572271653684574	33.04887092696082	479.49199432039194	575.6547189539336	-3.114503816793893	6.702290076335878	0.5343511450381679	-0.10644677661169415	0.41079460269865065	0.08695652173913043	
1.7089505652888438E12	2.130434782608696	-6.5	3.3152173913043477	3931.135531135531	128.0	128.0	8.484244165926476	24.56001097679269	33.044255142719166	479.49293190156607	575.6638062791594	-2.6412213740458013	6.717557251908397	0.5954198473282443	-0.09295352323838081	0.416791604197901	0.095952023988006	
1.7089505653083755E12	2.152173913043478	-6.489130434782608	3.391304347826087	3928.205128205128	128.0	128.0	8.494701802098966	24.555250949293487	33.04995275139245	479.49141734736173	575.657820183971	-3.2061068702290076	6.99236641221374	0.8091603053435115	-0.08545727136431784	0.4017991004497751	0.09295352323838081	
1.7089505653279072E12	2.130434782608696	-6.467391304347826	3.293478260869565	3931.135531135531	128.0	128.0	8.506890357362074	24.554097003233075	33.06098736059515	479.49285977993725	575.6466413315108	-2.763358778625954	7.083969465648854	0.5038167938931297	-0.08245877061469264	0.40629685157421286	0.08545727136431784	
1.708950565347439E12	2.108695652173913	-6.369565217391304	3.4130434782608696	3909.1575091575087	128.0	128.0	8.514030398610878	24.54868788107489	33.06271827968577	479.4930040231948	575.6675566038557	-5.221374045801526	6.290076335877862	0.41221374045801523	-0.09745127436281859	0.4197901049475262	0.09295352323838081	
1.7089505653669707E12	2.0978260869565215	-6.413043478260869	3.4239130434782608	3931.135531135531	128.0	128.0	8.528598967623589	24.58734507409872	33.11594404172231	479.4927876583085	575.664888103591	-5.893129770992366	6.229007633587786	0.22900763358778625	-0.08545727136431784	0.424287856071964	0.095952023988006	
1.7089505653865024E12	2.108695652173913	-6.434782608695652	3.3152173913043477	3929.6703296703295	128.0	128.0	8.547206347847743	24.66682310900964	33.21402945685738	479.49473494228545	575.6738311855593	-5.49618320610687	6.595419847328244	0.8396946564885496	-0.09295352323838081	0.40629685157421286	0.09295352323838081	
1.7089505654060342E12	2.119565217391304	-6.4021739130434785	3.3804347826086953	3906.227106227106	128.0	128.0	8.546124523416106	24.75812909103979	33.304253614455895	479.4948070639142	575.6027913812151	-5.770992366412213	6.946564885496183	0.7480916030534351	-0.095952023988006	0.42278860569715143	0.08995502248875561	
1.708950565425566E12	2.130434782608696	-6.413043478260869	3.391304347826087	3931.135531135531	128.0	128.0	8.551389402316738	24.640065984733823	33.19145538705056	479.4974755641789	575.6318563976117	-5.770992366412213	6.625954198473282	0.9465648854961831	-0.07796101949025487	0.4197901049475262	0.09295352323838081	
1.7089505654450977E12	2.119565217391304	-6.434782608695652	3.293478260869565	3929.6703296703295	128.0	128.0	8.550235456256326	24.574579545805406	33.12481500206173	479.4969707127775	575.6402946281785	-5.0534351145038165	6.65648854961832	0.9770992366412213	-0.08245877061469264	0.41379310344827586	0.095952023988006	
1.7089505654646294E12	2.119565217391304	-6.413043478260869	3.184782608695652	3928.205128205128	128.0	128.0	8.540643279629146	24.544865434749774	33.08550871437892	479.498413145353	575.6445498042763	-4.427480916030534	6.99236641221374	0.9618320610687022	-0.10494752623688156	0.40929535232383807	0.095952023988006	
1.7089505654841611E12	2.130434782608696	-6.423913043478261	3.2391304347826084	3929.6703296703295	128.0	128.0	8.53047412997176	24.52503198683643	33.05550611680819	479.5017307402767	575.6628686979853	-4.717557251908397	6.564885496183206	0.9007633587786259	-0.0704647676161919	0.4017991004497751	0.095952023988006	
1.7089505655036929E12	2.119565217391304	-6.4021739130434785	3.3152173913043477	3929.6703296703295	128.0	128.0	8.562856741292089	24.480244455366666	33.04310119665875	479.50216347004937	575.6859476191936	-4.473282442748092	6.717557251908397	0.7938931297709924	-0.095952023988006	0.4257871064467766	0.08695652173913043	
1.7089505655232246E12	2.141304347826087	-6.423913043478261	3.2282608695652173	3931.135531135531	128.0	128.0	8.671760400743533	24.95401143479484	33.62577183553837	479.5027404430796	575.3516638698178	-3.847328244274809	6.564885496183206	0.916030534351145	-0.08395802098950525	0.41529235382308843	0.10194902548725637	
1.7089505655427563E12	2.141304347826087	-6.434782608695652	3.358695652173913	3929.6703296703295	128.0	128.0	8.538768117280975	25.9357310456909	34.474499162971874	479.5056253082306	574.6486222325113	-4.076335877862595	7.007633587786259	0.8702290076335878	-0.08545727136431784	0.40629685157421286	0.095952023988006	
1.708950565562288E12	2.119565217391304	-6.456521739130435	3.1956521739130435	3906.227106227106	128.0	128.0	8.612548543518608	24.296478545245954	32.90902708876456	479.5044713621702	575.689337335746	-4.7328244274809155	6.519083969465648	0.8091603053435115	-0.08095952023988005	0.41079460269865065	0.09745127436281859	
1.7089505655818198E12	2.0760869565217392	-6.293478260869565	3.282608695652174	3929.6703296703295	128.0	128.0	8.660942156427165	24.364705606067847	33.02564776249501	479.5070677408061	575.7885045753127	-0.9770992366412213	5.587786259541985	0.33587786259541985	-0.10044977511244378	0.416791604197901	0.095952023988006	
1.7089505656013516E12	2.141304347826087	-6.5	3.0	3931.135531135531	128.0	128.0	8.592498730718939	24.4986354707045	33.091134201423436	479.506779254291	575.7328266778978	-8.702290076335878	7.083969465648854	0.8549618320610687	-0.08845577211394302	0.41079460269865065	0.08995502248875561	
1.7089505656208833E12	2.152173913043478	-6.326086956521739	3.2065217391304346	3929.6703296703295	128.0	128.0	8.576992580532144	24.524527135435008	33.10151971596715	479.50742834895	575.730807272292	-2.091603053435114	9.282442748091603	1.2366412213740459	-0.08095952023988005	0.41529235382308843	0.08995502248875561	
1.708950565640415E12	2.032608695652174	-6.423913043478261	3.2717391304347827	3929.6703296703295	128.0	128.0	8.578218648221332	24.55755884141432	33.13577748963565	479.5084380517528	575.7261914880504	-5.648854961832061	6.641221374045801	1.2519083969465647	-0.0914542728635682	0.41079460269865065	0.08995502248875561	
1.7089505656599468E12	2.108695652173913	-6.5978260869565215	3.2717391304347827	3931.135531135531	128.0	128.0	8.582329581061552	24.592609952999354	33.174939534060904	479.50721198406364	575.7414091517221	-4.061068702290076	5.083969465648854	0.6412213740458015	-0.08995502248875561	0.4017991004497751	0.09895052473763118	
1.7089505656794785E12	2.130434782608696	-6.5	3.184782608695652	3901.8315018315016	128.0	128.0	8.601513934315912	24.595206331635282	33.19672026595119	479.50807744360895	575.7570595451665	0.732824427480916	5.114503816793893	0.48854961832061067	-0.08245877061469264	0.40629685157421286	0.08545727136431784	
1.7089505656990103E12	2.108695652173913	-6.413043478260869	3.217391304347826	3929.6703296703295	128.0	128.0	8.63187714003052	24.651316958822846	33.283194098853365	479.5055531866018	575.7784075472841	-0.7022900763358778	5.541984732824427	0.2595419847328244	-0.09295352323838081	0.416791604197901	0.095952023988006	
1.708950565718542E12	2.141304347826087	-6.369565217391304	3.2065217391304346	3907.6923076923076	128.0	128.0	8.652503925860398	24.708293045555717	33.360796971416114	479.50598591637447	575.805453158075	-2.6412213740458013	5.526717557251908	0.5343511450381679	-0.09295352323838081	0.416791604197901	0.07796101949025487	
1.7089505657380737E12	2.130434782608696	-6.4021739130434785	3.260869565217391	3931.135531135531	128.0	128.0	8.689574443051153	24.774572822400668	33.46414726545182	479.5072841056924	575.8334363500401	-2.564885496183206	5.557251908396946	0.3511450381679389	-0.08095952023988005	0.4077961019490255	0.0944527736131934	
1.7089505657576055E12	2.108695652173913	-6.380434782608695	3.293478260869565	3931.135531135531	128.0	128.0	8.734145609634592	24.93223070290455	33.66637631253914	479.50793320035143	575.8379078910241	-3.709923664122137	5.7251908396946565	0.13740458015267176	-0.095952023988006	0.4077961019490255	0.0944527736131934	
1.7089505657771372E12	2.141304347826087	-6.434782608695652	3.282608695652174	3929.6703296703295	128.0	128.0	8.718134608046366	24.99100983035682	33.709144438403186	479.5080053219802	575.8019191982651	-4.549618320610687	6.122137404580153	-0.13740458015267176	-0.08995502248875561	0.41379310344827586	0.08845577211394302	
1.708950565796669E12	2.141304347826087	-6.434782608695652	3.282608695652174	3929.6703296703295	128.0	128.0	8.633608059121139	24.913479079422842	33.54708713854398	479.5106738222449	575.735350934905	-4.030534351145038	6.7328244274809155	-0.015267175572519083	-0.0704647676161919	0.40629685157421286	0.09895052473763118	
1.7089505658162007E12	2.1630434782608696	-6.413043478260869	3.260869565217391	3910.62271062271	128.0	128.0	8.593796920036903	24.762167902251235	33.355964822288136	479.51204413319164	575.7187629602865	-4.061068702290076	6.458015267175572	0.4427480916030534	-0.0914542728635682	0.39280359820089955	0.08995502248875561	
1.7089505658357324E12	2.152173913043478	-6.423913043478261	3.282608695652174	3901.8315018315016	128.0	128.0	8.555788821672062	24.63292594348502	33.18871476515708	479.5115392817902	575.6946022146467	-4.427480916030534	6.442748091603053	0.41221374045801523	-0.07646176911544228	0.4047976011994003	0.0944527736131934	
1.7089505658552642E12	2.1630434782608696	-6.434782608695652	3.2391304347826084	3929.6703296703295	128.0	128.0	8.530185643456656	24.59744210212733	33.127627745583986	479.51319807925205	575.6887603627158	-3.7557251908396947	6.259541984732824	0.42748091603053434	-0.08545727136431784	0.416791604197901	0.08845577211394302	
1.708950565874796E12	2.1630434782608696	-6.326086956521739	3.4130434782608696	3906.227106227106	128.0	128.0	8.52823835947971	24.559866733535145	33.08810509301485	479.51464051182757	575.7073677429399	-0.7175572519083969	6.977099236641221	0.6106870229007634	-0.07796101949025487	0.40929535232383807	0.08845577211394302	
1.7089505658943276E12	2.130434782608696	-6.445652173913043	2.9456521739130435	3931.135531135531	128.0	128.0	8.519439520769062	24.55777520630064	33.0772147270697	479.5157223362592	575.7127768650981	-4.580152671755725	6.458015267175572	0.9312977099236641	-0.07646176911544228	0.41529235382308843	0.08995502248875561	
1.7089505659138594E12	2.0978260869565215	-6.3478260869565215	3.4565217391304346	3929.6703296703295	128.0	128.0	8.52910381902502	24.561237044481885	33.0903408635069	479.51348656576715	575.7108295811212	-3.0076335877862594	6.748091603053435	1.1603053435114503	-0.08995502248875561	0.424287856071964	0.09295352323838081	
1.708950565933391E12	2.130434782608696	-6.434782608695652	3.184782608695652	3928.205128205128	128.0	128.0	8.5205213452007	24.586046884780757	33.106568229981455	479.5129817143657	575.7098919999471	-3.877862595419847	6.717557251908397	0.7633587786259541	-0.08395802098950525	0.4077961019490255	0.08395802098950525	
1.7089505659529229E12	2.108695652173913	-6.413043478260869	3.282608695652174	3929.6703296703295	128.0	128.0	8.538551752394648	24.564482517776796	33.10303427017144	479.51290959273695	575.7085938106292	-3.3740458015267176	7.221374045801526	0.8396946564885496	-0.08545727136431784	0.3988005997001499	0.095952023988006	
1.7089505659724546E12	2.141304347826087	-6.423913043478261	3.217391304347826	3913.5531135531132	128.0	128.0	8.534729306069531	24.5877056822426	33.12243498831213	479.51319807925205	575.6901306736626	-3.450381679389313	7.7251908396946565	0.9770992366412213	-0.07796101949025487	0.40629685157421286	0.095952023988006	
1.7089505659919863E12	2.141304347826087	-6.4021739130434785	3.1739130434782608	3931.135531135531	128.0	128.0	8.53234929231993	24.593403290915887	33.125752583235816	479.51319807925205	575.6798172807476	-3.877862595419847	7.679389312977099	1.3435114503816794	-0.07796101949025487	0.4017991004497751	0.0704647676161919	
1.708950566011518E12	2.0978260869565215	-6.391304347826087	3.2282608695652173	3929.6703296703295	128.0	128.0	8.538551752394648	24.57659895141113	33.115150703805774	479.5137029306535	575.6802500105202	-3.9847328244274807	7.221374045801526	0.9007633587786259	-0.0704647676161919	0.43178410794602695	0.095952023988006	
1.7089505660310498E12	2.141304347826087	-6.315217391304348	3.217391304347826	3906.227106227106	128.0	128.0	8.512371601149034	24.578762600274402	33.091134201423436	479.5144241469412	575.6831348756713	-4.717557251908397	7.2824427480916025	1.083969465648855	-0.095952023988006	0.41079460269865065	0.08395802098950525	
1.7089505660505815E12	2.130434782608696	-6.391304347826087	3.2065217391304346	3931.135531135531	128.0	128.0	8.516843142133133	24.565708585465977	33.08255172759911	479.51204413319164	575.6730378476427	-5.022900763358779	7.1603053435114505	0.9312977099236641	-0.10044977511244378	0.4197901049475262	0.08095952023988005	
1.7089505660701133E12	2.141304347826087	-6.358695652173913	3.2717391304347827	3931.135531135531	128.0	128.0	8.51107341183107	24.55864066584595	33.06971407767702	479.51262110622184	575.6630129412429	-4.824427480916031	7.068702290076335	1.1908396946564885	-0.08095952023988005	0.39730134932533734	0.0944527736131934	
1.708950566089645E12	2.152173913043478	-6.423913043478261	3.260869565217391	3929.6703296703295	128.0	128.0	8.496721207704688	24.55539519255104	33.05211640025573	479.51464051182757	575.6563777513954	-4.427480916030534	6.65648854961832	1.2061068702290076	-0.07796101949025487	0.3988005997001499	0.095952023988006	
1.7089505661091768E12	2.119565217391304	-6.445652173913043	3.141304347826087	3931.135531135531	128.0	128.0	8.49462968047019	24.560443706565344	33.055073387035534	479.5134144441384	575.6471461829121	-3.5877862595419847	7.0534351145038165	1.114503816793893	-0.08095952023988005	0.41829085457271364	0.09745127436281859	
1.7089505661287083E12	2.141304347826087	-6.423913043478261	3.1630434782608696	3916.4835164835163	128.0	128.0	8.475228962329503	24.5587849091035	33.034013871433004	479.5147847550851	575.6499589264345	-5.6183206106870225	6.3969465648854955	1.1603053435114503	-0.09295352323838081	0.40629685157421286	0.095952023988006	
1.70895056614824E12	2.141304347826087	-6.434782608695652	3.141304347826087	3931.135531135531	128.0	128.0	8.476599273276243	24.544144218462016	33.02074349173826	479.5129817143657	575.6413764526101	-6.6106870229007635	6.183206106870228	1.4809160305343512	-0.08545727136431784	0.39430284857571213	0.08845577211394302	
1.7089505661677717E12	2.130434782608696	-6.391304347826087	3.2065217391304346	3929.6703296703295	128.0	128.0	8.472416218807247	24.545009678007325	33.01742589681457	479.513847173911	575.6420976688979	-6.030534351145038	5.984732824427481	1.129770992366412	-0.08245877061469264	0.4017991004497751	0.09295352323838081	
1.7089505661873035E12	2.119565217391304	-6.4021739130434785	3.1739130434782608	3906.227106227106	128.0	128.0	8.461525852862103	24.580349276107462	33.041875128969565	479.51348656576715	575.6422419121554	-5.404580152671755	6.229007633587786	1.3435114503816794	-0.07346326836581708	0.41079460269865065	0.09745127436281859	
1.7089505662068352E12	2.119565217391304	-6.445652173913043	3.119565217391304	3929.6703296703295	128.0	128.0	8.462463434036188	24.66956373090312	33.13202716493931	479.51146716016143	575.6264472754535	-4.961832061068702	6.030534351145038	1.1450381679389312	-0.08395802098950525	0.4002998500749625	0.08995502248875561	
1.708950566226367E12	2.108695652173913	-6.445652173913043	3.2391304347826084	3929.6703296703295	128.0	128.0	8.445586972902653	24.7497629821018	33.19534995500445	479.5106017006161	575.580938527696	-6.259541984732824	5.984732824427481	0.8396946564885496	-0.07796101949025487	0.40629685157421286	0.09895052473763118	
1.7089505662458987E12	2.141304347826087	-6.467391304347826	3.2391304347826084	3928.205128205128	128.0	128.0	8.45265489252268	24.616410090495357	33.06906498301804	479.5119720115629	575.6056041247373	-6.595419847328244	5.740458015267175	0.8854961832061068	-0.07646176911544228	0.39280359820089955	0.0944527736131934	
1.7089505662654304E12	2.119565217391304	-6.5	3.1630434782608696	3929.6703296703295	128.0	128.0	8.425465038474208	24.575877735123363	33.00134277359757	479.51262110622184	575.6146914499631	-4.351145038167939	5.9541984732824424	0.6564885496183206	-0.08995502248875561	0.4017991004497751	0.09295352323838081	
1.7089505662849622E12	2.130434782608696	-6.456521739130435	3.0978260869565215	3904.7619047619046	128.0	128.0	8.407650996166588	24.540682380280778	32.948333376447366	479.51189988993406	575.6292600189757	-3.129770992366412	6.290076335877862	0.7480916030534351	-0.09745127436281859	0.41379310344827586	0.09295352323838081	
1.708950566304494E12	2.130434782608696	-6.456521739130435	3.152173913043478	3928.205128205128	128.0	128.0	8.418541362111732	24.525825324752965	32.9443666868647	479.509015024783	575.618874504432	-2.8396946564885495	6.213740458015267	0.4580152671755725	-0.08095952023988005	0.41529235382308843	0.08995502248875561	
1.7089505663240256E12	2.119565217391304	-6.489130434782608	3.2065217391304346	3928.205128205128	128.0	128.0	8.431667498548926	24.453703695977175	32.8853711945261	479.50995260595715	575.697703444684	-1.5419847328244274	6.3969465648854955	0.549618320610687	-0.08845577211394302	0.4047976011994003	0.0944527736131934	
1.7089505663435574E12	2.141304347826087	-6.445652173913043	3.217391304347826	3906.227106227106	128.0	128.0	8.532060805804827	24.770389767931675	33.3024505737365	479.51081806550246	575.4761458010847	-0.07633587786259542	6.122137404580153	0.4427480916030534	-0.08395802098950525	0.38980509745127434	0.08695652173913043	
1.708950566363089E12	2.141304347826087	-6.478260869565217	3.2065217391304346	3931.135531135531	128.0	128.0	8.374835655073602	25.984629510000886	34.35946516507449	479.5106738222449	574.5484452901418	-0.12213740458015267	6.809160305343511	0.48854961832061067	-0.08395802098950525	0.42278860569715143	0.09745127436281859	
1.7089505663826208E12	2.141304347826087	-6.445652173913043	3.152173913043478	3928.205128205128	128.0	128.0	8.419983794687248	24.409348894280065	32.82933268896731	479.5091592680406	575.5658651072819	-1.2366412213740459	6.6106870229007635	0.2748091603053435	-0.0914542728635682	0.39730134932533734	0.08695652173913043	
1.7089505664021526E12	2.119565217391304	-6.358695652173913	3.4456521739130435	3928.205128205128	128.0	128.0	8.507395208763505	24.3761729450432	32.883568153806706	479.50865441663916	575.7683105192555	1.6335877862595418	4.259541984732825	0.0916030534351145	-0.08995502248875561	0.4197901049475262	0.11394302848575712	
1.7089505664216843E12	2.1847826086956523	-6.58695652173913	2.7065217391304346	3906.227106227106	128.0	128.0	8.42286865983828	24.55041880016551	32.97328746000379	479.50851017338164	575.7047713643041	-6.519083969465648	7.816793893129771	0.6564885496183206	-0.095952023988006	0.41529235382308843	0.08995502248875561	
1.708950566441216E12	2.2065217391304346	-6.33695652173913	3.282608695652174	3917.948717948718	128.0	128.0	8.400438833289009	24.57594985675214	32.97638869004115	479.5078610787226	575.6948907011617	0.5190839694656488	9.694656488549619	0.9770992366412213	-0.07646176911544228	0.41529235382308843	0.10194902548725637	
1.7089505664607478E12	2.0760869565217392	-6.445652173913043	3.1956521739130435	3931.135531135531	128.0	128.0	8.415728618589476	24.60761125178471	33.02333987037419	479.50540894334426	575.701886499153	-2.2900763358778624	7.190839694656488	1.129770992366412	-0.07346326836581708	0.4002998500749625	0.10494752623688156	
1.7089505664802795E12	2.0760869565217392	-6.532608695652174	3.3043478260869565	3931.135531135531	128.0	128.0	8.423806241012365	24.627805307841932	33.0516115488543	479.50454348379895	575.7015980126379	-2.8091603053435112	6.702290076335878	1.0381679389312977	-0.08545727136431784	0.41379310344827586	0.095952023988006	
1.7089505664998113E12	2.152173913043478	-6.521739130434782	3.1956521739130435	3906.227106227106	128.0	128.0	8.426402619648293	24.662135203139215	33.08853782278751	479.5028846863371	575.7053483373343	2.4122137404580153	6.534351145038167	1.282442748091603	-0.09295352323838081	0.40629685157421286	0.095952023988006	
1.708950566519343E12	2.141304347826087	-6.456521739130435	3.2282608695652173	3931.135531135531	128.0	128.0	8.45900159585495	24.709591234873685	33.168592830728635	479.4981246588379	575.7335478941856	1.816793893129771	6.778625954198473	1.1603053435114503	-0.0914542728635682	0.4047976011994003	0.08395802098950525	
1.7089505665388748E12	2.1739130434782608	-6.423913043478261	3.25	3931.135531135531	128.0	128.0	8.484316287555252	24.753441185169365	33.23775747272462	479.4968985911487	575.7611704780066	-1.129770992366412	6.8396946564885495	1.2061068702290076	-0.08995502248875561	0.416791604197901	0.08545727136431784	
1.7089505665584065E12	2.1630434782608696	-6.423913043478261	3.282608695652174	3929.6703296703295	128.0	128.0	8.535883252129944	24.88030313018598	33.41618638231592	479.4945185773991	575.8141077535281	-1.0076335877862594	6.442748091603053	0.7480916030534351	-0.095952023988006	0.4047976011994003	0.08395802098950525	
1.7089505665779382E12	2.130434782608696	-6.413043478260869	3.3152173913043477	3929.6703296703295	128.0	128.0	8.553192443036133	24.969589706610407	33.52278214964654	479.4930040231948	575.8026404145528	-1.0534351145038168	6.152671755725191	0.8091603053435115	-0.08395802098950525	0.4287856071964018	0.08395802098950525	
1.70895056659747E12	2.141304347826087	-6.434782608695652	3.260869565217391	3929.6703296703295	128.0	128.0	8.55016333462755	25.024762752623886	33.574926087251434	479.4915615906193	575.7416255166085	-1.1908396946564885	6.824427480916031	0.7175572519083969	-0.0914542728635682	0.41829085457271364	0.09745127436281859	
1.7089505666170017E12	2.141304347826087	-6.456521739130435	3.282608695652174	3929.6703296703295	128.0	128.0	8.51330918232312	24.95155929941646	33.46486848173958	479.49177795550565	575.6652487117349	-1.3893129770992365	7.099236641221374	0.9923664122137404	-0.08545727136431784	0.3988005997001499	0.10344827586206896	
1.7089505666365334E12	2.141304347826087	-6.434782608695652	3.369565217391304	3928.205128205128	128.0	128.0	8.454241568355748	24.826788881634343	33.28103044999009	479.4915615906193	575.6283224378017	-2.2442748091603053	6.7328244274809155	1.099236641221374	-0.07496251874062969	0.416791604197901	0.10644677661169415	
1.7089505666560652E12	2.119565217391304	-6.456521739130435	3.369565217391304	3904.7619047619046	128.0	128.0	8.413420726468651	24.699782693360177	33.11320341982883	479.4896864282711	575.5852658254225	-3.877862595419847	6.916030534351145	0.8702290076335878	-0.07496251874062969	0.41379310344827586	0.09895052473763118	
1.708950566675597E12	2.119565217391304	-6.478260869565217	3.25	3903.296703296703	128.0	128.0	8.408227969196794	24.651244837194064	33.05947280639086	479.4880997524381	575.575457283909	-2.8396946564885495	6.015267175572519	0.7480916030534351	-0.08245877061469264	0.4017991004497751	0.095952023988006	
1.7089505666951287E12	2.130434782608696	-6.369565217391304	3.641304347826087	3929.6703296703295	128.0	128.0	8.402746725409834	24.62816591598581	33.030912641395645	479.4880997524381	575.589304636634	-0.8244274809160305	7.038167938931298	0.9923664122137404	-0.09895052473763118	0.4047976011994003	0.08395802098950525	
1.7089505667146604E12	2.130434782608696	-6.5	3.043478260869565	3928.205128205128	128.0	128.0	8.399501252114923	24.630113199962757	33.02961445207768	479.4868736847489	575.582236717014	-3.8625954198473282	6.351145038167939	1.1450381679389312	-0.08545727136431784	0.416791604197901	0.07496251874062969	
1.7089505667341921E12	2.0760869565217392	-6.391304347826087	3.434782608695652	3904.7619047619046	128.0	128.0	8.407939482681691	24.641147809165453	33.049087291847144	479.4877391442942	575.5882228122024	-2.183206106870229	7.251908396946565	1.1755725190839694	-0.07796101949025487	0.41379310344827586	0.09895052473763118	
1.7089505667537239E12	2.130434782608696	-6.434782608695652	3.3043478260869565	3929.6703296703295	128.0	128.0	8.408877063855776	24.639056281930955	33.04793334578673	479.4873785361503	575.5798567032643	-3.7709923664122136	6.564885496183206	1.1450381679389312	-0.06896551724137931	0.4002998500749625	0.08995502248875561	
1.7089505667732556E12	2.108695652173913	-6.5	3.4239130434782608	3929.6703296703295	128.0	128.0	8.421426227262764	24.663433392457172	33.084859619719936	479.4864409549762	575.5891603933765	-3.7557251908396947	6.702290076335878	0.8549618320610687	-0.10044977511244378	0.40929535232383807	0.095952023988006	
1.7089505667927874E12	2.1630434782608696	-6.565217391304348	3.3043478260869565	3929.6703296703295	128.0	128.0	8.425825646618087	24.647782999012826	33.07360864563091	479.48788338755173	575.5801451897795	-2.732824427480916	7.3893129770992365	0.9770992366412213	-0.08845577211394302	0.4077961019490255	0.09745127436281859	
1.708950566812319E12	2.141304347826087	-6.554347826086956	3.282608695652174	3904.7619047619046	128.0	128.0	8.435417823245267	24.651461202080398	33.086879025325665	479.4883161173244	575.5786306355752	-2.4732824427480917	7.709923664122137	0.5801526717557252	-0.08245877061469264	0.40929535232383807	0.10344827586206896	
1.7089505668318508E12	2.141304347826087	-6.5	3.3369565217391304	3931.135531135531	128.0	128.0	8.448111229909806	24.638118700756877	33.08622993066668	479.4886767254683	575.5747360676213	-1.7251908396946565	7.862595419847328	0.9465648854961831	-0.10044977511244378	0.40929535232383807	0.09295352323838081	
