"sep=	"
Shimmer_6D72_TimestampSync_Unix_CAL	Shimmer_6D72_Accel_LN_X_CAL	Shimmer_6D72_Accel_LN_Y_CAL	Shimmer_6D72_Accel_LN_Z_CAL	Shimmer_6D72_Battery_CAL	Shimmer_6D72_ECG_EMG_Status1_CAL	Shimmer_6D72_ECG_EMG_Status2_CAL	Shimmer_6D72_ECG_LA-RA_24BIT_CAL	Shimmer_6D72_ECG_LL-LA_24BIT_CAL	Shimmer_6D72_ECG_LL-RA_24BIT_CAL	Shimmer_6D72_ECG_RESP_24BIT_CAL	Shimmer_6D72_ECG_Vx-RL_24BIT_CAL	Shimmer_6D72_Gyro_X_CAL	Shimmer_6D72_Gyro_Y_CAL	Shimmer_6D72_Gyro_Z_CAL	Shimmer_6D72_Mag_X_CAL	Shimmer_6D72_Mag_Y_CAL	Shimmer_6D72_Mag_Z_CAL	
ms	m/(s^2)	m/(s^2)	m/(s^2)	mV	no_units	no_units	mV	mV	mV	mV	mV	deg/s	deg/s	deg/s	local_flux	local_flux	local_flux	
1.7089504031156716E12	1.9782608695652173	-6.456521739130435	3.260869565217391	3931.135531135531	128.0	128.0	11.096922289958274	19.535152856725794	30.63207514668407	480.17505826652746	567.6764080138694	-3.1755725190839694	6.65648854961832	1.0229007633587786	-0.10044977511244378	0.4017991004497751	0.09895052473763118	
1.7089504031352034E12	1.967391304347826	-6.489130434782608	3.1956521739130435	3910.62271062271	128.0	128.0	11.074564585037779	19.50745815127589	30.58202273631367	480.17577948281524	567.6854232174663	-3.129770992366412	6.5038167938931295	0.7938931297709924	-0.09745127436281859	0.41379310344827586	0.095952023988006	
1.708950403154735E12	2.0217391304347827	-6.413043478260869	3.543478260869565	3903.296703296703	128.0	128.0	11.077088842044931	19.48949986571072	30.566588707755653	480.17505826652746	567.6861444337541	-2.6412213740458013	6.534351145038167	0.9770992366412213	-0.09745127436281859	0.40629685157421286	0.09895052473763118	
1.708950403174267E12	2.010869565217391	-6.58695652173913	3.043478260869565	3931.135531135531	128.0	128.0	11.077593693446362	19.5038520698371	30.581445763283465	480.17448129349725	567.683259568603	-4.122137404580153	5.557251908396946	0.8854961832061068	-0.08545727136431784	0.41379310344827586	0.09295352323838081	
1.7089504031937988E12	2.010869565217391	-6.521739130434782	3.4130434782608696	3909.1575091575087	128.0	128.0	11.079973707195963	19.523180666349013	30.603154373544978	480.17476978001235	567.7100166928789	0.48854961832061067	6.183206106870228	1.1450381679389312	-0.09895052473763118	0.4002998500749625	0.08695652173913043	
1.7089504032133308E12	2.032608695652174	-6.532608695652174	3.293478260869565	3919.4139194139193	128.0	128.0	11.101970803972579	19.546403830814818	30.648374634787398	480.1741206853534	567.72350343746	-0.9465648854961831	6.65648854961832	0.9312977099236641	-0.08545727136431784	0.41379310344827586	0.095952023988006	
1.7089504032328625E12	2.0543478260869565	-6.510869565217391	3.25	3931.135531135531	128.0	128.0	11.109471453365261	19.560828156569976	30.67029960993524	480.17426492861097	567.7551648324925	1.1603053435114503	6.351145038167939	0.6412213740458015	-0.07346326836581708	0.41079460269865065	0.0944527736131934	
1.7089504032523945E12	2.043478260869565	-6.510869565217391	3.391304347826087	3931.135531135531	128.0	128.0	11.12764610381676	19.584628294065986	30.712274397882748	480.1762843342167	567.7499720752206	1.5419847328244274	7.2824427480916025	0.5190839694656488	-0.09295352323838081	0.41379310344827586	0.09895052473763118	
1.7089504032719263E12	2.0543478260869565	-6.510869565217391	3.391304347826087	3932.6007326007325	128.0	128.0	11.127357617301657	19.60251445800239	30.729872075304044	480.1768613072469	567.7605018330219	-0.015267175572519083	7.679389312977099	0.7633587786259541	-0.09295352323838081	0.4197901049475262	0.095952023988006	
1.7089504032914583E12	2.010869565217391	-6.413043478260869	3.402173913043478	3915.0183150183148	128.0	128.0	11.145388024495606	19.563713021721007	30.709101046216613	480.17960192914035	567.7690843068463	-0.41221374045801523	7.511450381679389	0.7633587786259541	-0.09895052473763118	0.4047976011994003	0.08995502248875561	
1.70895040331099E12	1.9782608695652173	-6.423913043478261	3.3260869565217392	3931.135531135531	128.0	128.0	11.150436538509911	19.580950090998424	30.731386629508336	480.1814049698597	567.7736279694591	-2.3206106870229006	6.809160305343511	1.114503816793893	-0.09295352323838081	0.40629685157421286	0.095952023988006	
1.708950403330522E12	2.010869565217391	-6.413043478260869	3.282608695652174	3932.6007326007325	128.0	128.0	11.153249282032167	19.559169359108132	30.7124186411403	480.1824867942914	567.784590457033	-3.2061068702290076	7.007633587786259	1.1450381679389312	-0.08545727136431784	0.40629685157421286	0.095952023988006	
1.7089504033500537E12	2.0217391304347827	-6.413043478260869	3.3043478260869565	3907.6923076923076	128.0	128.0	11.160461444909746	19.555707520926894	30.71616896583664	480.1832801322079	567.7712479557094	-3.465648854961832	7.0534351145038165	1.2061068702290076	-0.10344827586206896	0.4077961019490255	0.0944527736131934	
1.7089504033695857E12	2.0217391304347827	-6.434782608695652	3.260869565217391	3920.879120879121	128.0	128.0	11.160533566538522	19.54878384456442	30.70931741110294	480.1846504431547	567.7822104432834	-4.183206106870228	6.931297709923664	0.7938931297709924	-0.08395802098950525	0.41829085457271364	0.0944527736131934	
1.7089504033891174E12	2.0217391304347827	-6.413043478260869	3.369565217391304	3931.135531135531	128.0	128.0	11.164644499378742	19.523829761007995	30.688474260386737	480.18854501110854	567.7769455643828	-3.465648854961832	7.038167938931298	1.1908396946564885	-0.08245877061469264	0.416791604197901	0.09295352323838081	
1.7089504034086492E12	2.010869565217391	-6.4021739130434785	3.3369565217391304	3931.135531135531	128.0	128.0	11.175102135551231	19.53883105979336	30.71393319534459	480.191934727661	567.7801189160489	-4.366412213740458	6.900763358778626	0.6564885496183206	-0.10044977511244378	0.40629685157421286	0.10344827586206896	
1.7089504034281812E12	2.0	-6.434782608695652	3.293478260869565	3931.135531135531	128.0	128.0	11.183396122860447	19.521810355402273	30.70520647826272	480.1928723088351	567.7752867669209	-3.969465648854962	6.534351145038167	0.8854961832061068	-0.08245877061469264	0.4017991004497751	0.09895052473763118	
1.708950403447713E12	2.0	-6.423913043478261	3.293478260869565	3931.135531135531	128.0	128.0	11.171423932483666	19.516761841387968	30.688185773871634	480.1946753495545	567.7846625786618	-3.2519083969465647	6.65648854961832	0.732824427480916	-0.08545727136431784	0.4197901049475262	0.08545727136431784	
1.7089504034672449E12	2.032608695652174	-6.369565217391304	3.260869565217391	3931.135531135531	128.0	128.0	11.183468244489223	19.52750796407556	30.710976208564784	480.197415971448	567.7835086326014	-2.4580152671755724	6.763358778625954	0.916030534351145	-0.095952023988006	0.4077961019490255	0.08995502248875561	
1.7089504034867766E12	2.0	-6.4021739130434785	3.2391304347826084	3931.135531135531	128.0	128.0	11.169332405249168	19.527796450590664	30.697128855839832	480.19864203913716	567.791369890138	-3.5877862595419847	6.687022900763359	1.1755725190839694	-0.11094452773613193	0.41079460269865065	0.10494752623688156	
1.7089504035063086E12	2.0	-6.4021739130434785	3.3152173913043477	3907.6923076923076	128.0	128.0	11.170414229680805	19.52339703123534	30.693811260916146	480.1991468905386	567.8007457018788	-3.9236641221374042	6.854961832061068	0.8854961832061068	-0.10044977511244378	0.4017991004497751	0.09895052473763118	
1.7089504035258403E12	1.9782608695652173	-6.391304347826087	3.282608695652174	3932.6007326007325	128.0	128.0	11.180294892823088	19.54524988475441	30.725544777577497	480.20188751243205	567.7829316595712	-3.7557251908396947	6.778625954198473	0.8702290076335878	-0.08245877061469264	0.4017991004497751	0.08095952023988005	
1.7089504035453723E12	1.9891304347826086	-6.380434782608695	3.25	3931.135531135531	128.0	128.0	11.181881568656156	19.527291599189233	30.70917316784539	480.20304145849246	567.8009620667651	-3.465648854961832	6.900763358778626	0.7480916030534351	-0.08395802098950525	0.39730134932533734	0.08995502248875561	
1.708950403564904E12	1.9891304347826086	-6.391304347826087	3.3043478260869565	3932.6007326007325	128.0	128.0	11.183468244489223	19.534143153922933	30.717611398412156	480.2042675261817	567.7970674988112	-3.5267175572519083	6.900763358778626	1.083969465648855	-0.07796101949025487	0.3988005997001499	0.09895052473763118	
1.708950403584436E12	2.010869565217391	-6.391304347826087	3.2391304347826084	3928.205128205128	128.0	128.0	11.175679108581438	19.546980803845027	30.722659912426465	480.2059263236435	567.8002408504774	-3.7709923664122136	6.702290076335878	0.7786259541984732	-0.08845577211394302	0.41529235382308843	0.10794602698650674	
1.7089504036039678E12	1.9891304347826086	-6.369565217391304	3.2717391304347827	3932.6007326007325	128.0	128.0	11.197676205358054	19.535729829756004	30.733406035114058	480.2075129994766	567.7873310789265	-3.8931297709923665	6.6106870229007635	0.8396946564885496	-0.08395802098950525	0.41529235382308843	0.09745127436281859	
1.7089504036234998E12	2.0217391304347827	-6.315217391304348	3.2282608695652173	3931.135531135531	128.0	128.0	11.193853759032937	19.533638302521506	30.727492061554443	480.2060705669011	567.788773511502	-3.5267175572519083	6.793893129770992	0.732824427480916	-0.08095952023988005	0.41079460269865065	0.08995502248875561	
1.7089504036430315E12	2.0	-6.315217391304348	3.184782608695652	3931.135531135531	128.0	128.0	11.173515459718164	19.54604322267094	30.719558682389103	480.2069360264464	567.78653774101	-3.297709923664122	6.65648854961832	0.38167938931297707	-0.10344827586206896	0.4047976011994003	0.10794602698650674	
1.7089504036625632E12	2.010869565217391	-6.33695652173913	3.141304347826087	3907.6923076923076	128.0	128.0	11.179717919792882	19.553543872063624	30.733261791856506	480.2067917831888	567.7858165247222	-3.847328244274809	6.99236641221374	0.4427480916030534	-0.08995502248875561	0.40929535232383807	0.09895052473763118	
1.7089504036820952E12	2.010869565217391	-6.33695652173913	3.0978260869565215	3932.6007326007325	128.0	128.0	11.170125743165702	19.554914183010364	30.725039926176066	480.20787360762046	567.7889898763883	-4.137404580152672	6.6106870229007635	0.183206106870229	-0.095952023988006	0.41079460269865065	0.11244377811094453	
1.708950403701627E12	2.0217391304347827	-6.3478260869565215	3.119565217391304	3932.6007326007325	128.0	128.0	11.165726323810379	19.584339807550887	30.750066131361265	480.20758512110535	567.7881965384718	-4.3206106870229	7.129770992366412	0.2595419847328244	-0.08095952023988005	0.39730134932533734	0.09745127436281859	
1.708950403721159E12	2.043478260869565	-6.369565217391304	3.282608695652174	3931.135531135531	128.0	128.0	11.172433635286527	19.676511249126346	30.848944884412873	480.2057099587572	567.7786764834734	-5.6183206106870225	6.961832061068702	0.48854961832061067	-0.07796101949025487	0.4017991004497751	0.095952023988006	
1.7089504037406907E12	2.032608695652174	-6.4021739130434785	3.260869565217391	3932.6007326007325	128.0	128.0	11.19911863793357	19.68790646647292	30.88702510440649	480.20347418826515	567.7700218880203	-7.526717557251908	6.290076335877862	0.6412213740458015	-0.08095952023988005	0.4077961019490255	0.0944527736131934	
1.7089504037602227E12	2.0217391304347827	-6.434782608695652	3.293478260869565	3932.6007326007325	128.0	128.0	11.153754133433598	19.591335605542138	30.745089738975736	480.20275297197736	567.7766570778676	-7.572519083969465	6.7328244274809155	0.7480916030534351	-0.08095952023988005	0.4002998500749625	0.10194902548725637	
1.7089504037797544E12	2.010869565217391	-6.4021739130434785	3.2065217391304346	3931.135531135531	128.0	128.0	11.143152254003557	19.579868266566788	30.723020520570344	480.2029693368637	567.7775946590417	-7.511450381679389	6.625954198473282	0.8244274809160305	-0.08545727136431784	0.416791604197901	0.09895052473763118	
1.7089504037992864E12	2.0543478260869565	-6.434782608695652	3.141304347826087	3931.135531135531	128.0	128.0	11.138175861618027	19.569554873651846	30.707730735269873	480.20433964781046	567.787186835669	-6.961832061068702	7.145038167938931	0.8549618320610687	-0.08395802098950525	0.41079460269865065	0.08695652173913043	
1.708950403818818E12	2.0217391304347827	-6.456521739130435	3.119565217391304	3907.6923076923076	128.0	128.0	11.128295198475742	19.56573242732673	30.694027625802473	480.20246448546226	567.800024485591	-7.099236641221374	7.572519083969465	0.6870229007633587	-0.08995502248875561	0.41379310344827586	0.10644677661169415	
1.70895040383835E12	2.032608695652174	-6.467391304347826	3.1739130434782608	3932.6007326007325	128.0	128.0	11.139401929307216	19.52339703123534	30.662798960542556	480.20015659334143	567.8268537314956	-5.190839694656488	7.145038167938931	0.7633587786259541	-0.07496251874062969	0.3988005997001499	0.08845577211394302	
1.7089504038578818E12	2.032608695652174	-6.478260869565217	3.152173913043478	3932.6007326007325	128.0	128.0	11.213687206946279	20.231270817669728	31.444958024616007	480.19893052565226	567.379627511457	-4.5038167938931295	6.671755725190839	0.8549618320610687	-0.0914542728635682	0.41079460269865065	0.10494752623688156	
1.7089504038774138E12	2.0543478260869565	-6.478260869565217	3.3043478260869565	3931.135531135531	128.0	128.0	11.135651604610874	20.89168857236964	32.027340176980516	480.19950749868246	566.9130726949063	-4.244274809160305	7.175572519083969	1.0381679389312977	-0.10344827586206896	0.41529235382308843	0.0944527736131934	
1.7089504038969456E12	2.032608695652174	-6.532608695652174	2.869565217391304	3931.135531135531	128.0	128.0	11.194791340207022	19.322754659981094	30.517546000188116	480.1982814309933	567.883036480312	-5.648854961832061	7.603053435114504	0.6564885496183206	-0.0914542728635682	0.4047976011994003	0.09745127436281859	
1.7089504039164773E12	1.9239130434782608	-6.228260869565217	3.869565217391304	3919.4139194139193	128.0	128.0	11.223567870088562	19.433100752008052	30.656668622096614	480.19777657959185	567.9545090144288	-5.175572519083969	3.847328244274809	0.5190839694656488	-0.08995502248875561	0.40629685157421286	0.09895052473763118	
1.7089504039360093E12	2.0869565217391304	-6.532608695652174	2.467391304347826	3931.135531135531	128.0	128.0	11.145964997525812	19.576045820241667	30.72201081776748	480.1952523225847	567.9110917939057	-7.98473282442748	7.8473282442748085	0.42748091603053434	-0.07646176911544228	0.4047976011994003	0.08995502248875561	
1.708950403955541E12	2.0543478260869565	-6.33695652173913	3.293478260869565	3931.135531135531	128.0	128.0	11.13038672571024	19.60749085038792	30.737877576098157	480.19366564675164	567.9172942539805	-1.7099236641221374	10.702290076335878	0.9312977099236641	-0.0914542728635682	0.4047976011994003	0.10494752623688156	
1.708950403975073E12	1.9130434782608696	-6.510869565217391	3.1739130434782608	3909.1575091575087	128.0	128.0	11.146758335442346	19.629632190422083	30.77639052586443	480.19099714648695	567.9153469700035	-6.534351145038167	7.740458015267175	1.2671755725190839	-0.095952023988006	0.39730134932533734	0.08395802098950525	
1.7089504039946047E12	2.043478260869565	-6.5978260869565215	3.1304347826086953	3932.6007326007325	128.0	128.0	11.13298310434617	19.666919072499166	30.799902176845336	480.18969895716896	567.9239294438279	-6.412213740458015	7.0534351145038165	1.1450381679389312	-0.08545727136431784	0.39430284857571213	0.09295352323838081	
1.7089504040141367E12	2.0652173913043477	-6.510869565217391	3.2065217391304346	3931.135531135531	128.0	128.0	11.153249282032167	19.687617979957817	30.840867261989985	480.18674197038916	567.9335937420838	-1.7251908396946565	6.137404580152672	0.9007633587786259	-0.08545727136431784	0.40629685157421286	0.10644677661169415	
1.7089504040336685E12	2.0	-6.467391304347826	3.1630434782608696	3931.135531135531	128.0	128.0	11.179645798164106	19.746036499266207	30.925682297430313	480.1855159027	567.9652551371164	-1.83206106870229	6.33587786259542	1.114503816793893	-0.09745127436281859	0.3988005997001499	0.095952023988006	
1.7089504040532004E12	2.0217391304347827	-6.445652173913043	3.1304347826086953	3931.135531135531	128.0	128.0	11.195584678123556	19.801786518309896	30.997371196433452	480.1839292268669	567.985954044575	-3.6030534351145036	6.152671755725191	1.1603053435114503	-0.10344827586206896	0.4077961019490255	0.09745127436281859	
1.7089504040727322E12	2.032608695652174	-6.391304347826087	3.1739130434782608	3920.879120879121	128.0	128.0	11.236261276753101	19.9003767848464	31.136638061599502	480.1821261861475	568.0124226823357	-3.145038167938931	5.938931297709924	1.1908396946564885	-0.07346326836581708	0.4047976011994003	0.10794602698650674	
1.7089504040922642E12	2.010869565217391	-6.423913043478261	3.1630434782608696	3932.6007326007325	128.0	128.0	11.285520349206967	20.044692164026756	31.330212513233725	480.1799625372842	568.0206445480162	-2.5801526717557253	6.122137404580153	0.8396946564885496	-0.08995502248875561	0.4017991004497751	0.09295352323838081	
1.708950404111796E12	2.043478260869565	-6.445652173913043	3.1739130434782608	3932.6007326007325	128.0	128.0	11.271456631595688	20.08645058708794	31.35790721868363	480.1799625372842	567.9977098700655	-2.8244274809160306	6.2748091603053435	0.6564885496183206	-0.095952023988006	0.38530734632683655	0.10194902548725637	
1.708950404131328E12	2.0543478260869565	-6.456521739130435	3.152173913043478	3907.6923076923076	128.0	128.0	11.207989598272992	19.993485807595945	31.201475405868937	480.18046738868566	567.9214051868207	-3.145038167938931	6.366412213740458	0.6106870229007634	-0.07646176911544228	0.41529235382308843	0.10194902548725637	
1.7089504041508596E12	2.043478260869565	-6.478260869565217	3.1956521739130435	3906.227106227106	128.0	128.0	11.147335308472552	19.862152321595232	31.009487630067785	480.1802510237993	567.8756079525481	-3.2213740458015265	6.564885496183206	0.47328244274809156	-0.08995502248875561	0.4017991004497751	0.08845577211394302	
1.7089504041703914E12	2.0217391304347827	-6.467391304347826	3.1956521739130435	3932.6007326007325	128.0	128.0	11.098941695563996	19.73507401169229	30.834015707256285	480.1801067805418	567.8516635717945	-3.49618320610687	6.412213740458015	0.6106870229007634	-0.08245877061469264	0.3988005997001499	0.09295352323838081	
1.7089504041899233E12	2.010869565217391	-6.478260869565217	3.184782608695652	3931.135531135531	128.0	128.0	11.072761544318384	19.697282278213777	30.77004382253216	480.1785922263375	567.8459659631212	-3.2213740458015265	6.687022900763359	0.5343511450381679	-0.07496251874062969	0.40929535232383807	0.095952023988006	
1.708950404209455E12	1.9891304347826086	-6.5	2.967391304347826	3932.6007326007325	128.0	128.0	11.0673524221602	19.674203357005524	30.741555779165722	480.1783037398224	567.8565678425513	-2.9770992366412212	6.305343511450381	0.6564885496183206	-0.08245877061469264	0.40629685157421286	0.09295352323838081	
1.708950404228987E12	2.010869565217391	-6.445652173913043	3.1739130434782608	3922.344322344322	128.0	128.0	11.068939097993267	19.673337897460215	30.74227699545348	480.1767891856181	567.8555581397484	-0.7022900763358778	6.519083969465648	0.7938931297709924	-0.08245877061469264	0.40629685157421286	0.09895052473763118	
1.7089504042485188E12	1.967391304347826	-6.413043478260869	3.152173913043478	3931.135531135531	128.0	128.0	11.05776024553302	19.673482140717766	30.731242386250784	480.17808737493607	567.8598133158462	-3.2061068702290076	6.076335877862595	0.7480916030534351	-0.08395802098950525	0.4002998500749625	0.09745127436281859	
1.7089504042680508E12	1.9891304347826086	-6.413043478260869	3.217391304347826	3931.135531135531	128.0	128.0	11.058337218563226	19.6924501290858	30.750787347649023	480.17989041565545	567.8846952777739	-0.42748091603053434	6.7328244274809155	0.5190839694656488	-0.08845577211394302	0.4002998500749625	0.09745127436281859	
1.7089504042875825E12	2.043478260869565	-6.445652173913043	3.184782608695652	3907.6923076923076	128.0	128.0	11.056462056215056	19.70427807620503	30.760740132420082	480.1773661586483	567.8754637092906	-3.49618320610687	6.137404580152672	0.6717557251908397	-0.095952023988006	0.41079460269865065	0.09745127436281859	
1.7089504043071145E12	2.032608695652174	-6.489130434782608	3.25	3931.135531135531	128.0	128.0	11.048240190534615	19.72238060502775	30.770620795562365	480.17779888842097	567.8881571159551	-2.931297709923664	6.916030534351145	0.6717557251908397	-0.08845577211394302	0.4257871064467766	0.11544227886056971	
1.7089504043266462E12	2.043478260869565	-6.5	3.1630434782608696	3931.135531135531	128.0	128.0	11.05588508318485	19.71812542892998	30.774010512114828	480.1772940370195	567.8826758721681	-3.16030534351145	7.541984732824427	0.7633587786259541	-0.10044977511244378	0.3913043478260869	0.095952023988006	
1.7089504043461782E12	2.0217391304347827	-6.467391304347826	3.1956521739130435	3929.6703296703295	128.0	128.0	11.045860176785014	19.72036119942203	30.766221376207042	480.17664494236055	567.883036480312	-2.717557251908397	7.343511450381679	0.7175572519083969	-0.08395802098950525	0.4077961019490255	0.0944527736131934	
1.70895040436571E12	2.0	-6.456521739130435	3.1739130434782608	3931.135531135531	128.0	128.0	11.048528677049719	19.7040617113187	30.752590388368418	480.17751040190586	567.8776273581537	-2.748091603053435	7.526717557251908	1.0534351145038168	-0.08845577211394302	0.41079460269865065	0.08995502248875561	
1.708950404385242E12	2.032608695652174	-6.413043478260869	3.141304347826087	3931.135531135531	128.0	128.0	11.041532879058467	19.699662291963378	30.741195171021843	480.1757073611865	567.8661600191784	-3.0381679389312977	7.312977099236641	0.8549618320610687	-0.08245877061469264	0.4017991004497751	0.08545727136431784	
1.7089504044047737E12	2.032608695652174	-6.434782608695652	3.1739130434782608	3931.135531135531	128.0	128.0	11.031796459173735	19.687041006927608	30.718837466101345	480.17635645584545	567.8741655199725	-2.732824427480916	7.114503816793893	0.916030534351145	-0.09295352323838081	0.40629685157421286	0.10344827586206896	
1.7089504044243057E12	2.032608695652174	-6.467391304347826	3.217391304347826	3931.135531135531	128.0	128.0	11.034032229665785	19.681776128026975	30.71580835769276	480.17534675304256	567.8745982497452	-2.900763358778626	6.763358778625954	1.1603053435114503	-0.08995502248875561	0.40929535232383807	0.09895052473763118	
1.7089504044438374E12	2.0217391304347827	-6.489130434782608	3.217391304347826	3906.227106227106	128.0	128.0	11.025305512583914	19.685382209465764	30.71068772204968	480.17520250978504	567.8612557484216	-3.2061068702290076	6.473282442748092	0.6564885496183206	-0.06596701649175413	0.4077961019490255	0.0944527736131934	
1.7089504044633691E12	2.0217391304347827	-6.554347826086956	3.260869565217391	3932.6007326007325	128.0	128.0	11.03634012178661	19.670957883710606	30.70729800549722	480.1755631179289	567.86724184361	-3.2671755725190836	6.809160305343511	0.8396946564885496	-0.08995502248875561	0.40629685157421286	0.09895052473763118	
1.7089504044829011E12	2.0217391304347827	-6.554347826086956	3.217391304347826	3939.9267399267396	128.0	128.0	11.041965608831122	19.66266389640139	30.704629505232514	480.17505826652746	567.8739491550862	-3.145038167938931	6.671755725190839	0.9312977099236641	-0.08395802098950525	0.39280359820089955	0.10194902548725637	
1.7089504045024329E12	2.0	-6.521739130434782	3.2065217391304346	3929.6703296703295	128.0	128.0	11.04319167652031	19.65631719306912	30.699508869589433	480.17751040190586	567.8681794247841	-2.045801526717557	5.923664122137405	0.8091603053435115	-0.08995502248875561	0.39430284857571213	0.095952023988006	
1.7089504045219648E12	2.032608695652174	-6.489130434782608	3.2282608695652173	3932.6007326007325	128.0	128.0	11.05004323125401	19.654658395607278	30.70470162686129	480.17563523955766	567.8580102751267	-0.8549618320610687	5.9541984732824424	0.48854961832061067	-0.08245877061469264	0.3913043478260869	0.09295352323838081	
1.7089504045414966E12	2.0217391304347827	-6.456521739130435	3.260869565217391	3923.8095238095234	128.0	128.0	11.056534177843831	19.659634787992808	30.71616896583664	480.1755631179289	567.8646454649742	0.8091603053435115	6.381679389312977	0.7175572519083969	-0.08995502248875561	0.416791604197901	0.095952023988006	
1.7089504045610286E12	1.9891304347826086	-6.456521739130435	3.2065217391304346	3931.135531135531	128.0	128.0	11.06547725981203	19.668000896930806	30.733478156742834	480.17563523955766	567.8546205585743	0.7786259541984732	6.519083969465648	0.8244274809160305	-0.08095952023988005	0.4077961019490255	0.0944527736131934	
1.7089504045805603E12	2.010869565217391	-6.445652173913043	3.282608695652174	3932.6007326007325	128.0	128.0	11.073987612007572	19.656172949811577	30.730160561819147	480.1783037398224	567.8660878975496	0.3511450381679389	6.702290076335878	0.916030534351145	-0.08245877061469264	0.40929535232383807	0.11094452773613193	
1.7089504046000923E12	2.010869565217391	-6.456521739130435	3.25	3909.1575091575087	128.0	128.0	11.078242788105344	19.64960988159298	30.727852669698322	480.1775825235346	567.8556302613772	-1.114503816793893	6.748091603053435	0.9312977099236641	-0.08845577211394302	0.41079460269865065	0.09745127436281859	
1.708950404619624E12	2.0217391304347827	-6.456521739130435	3.184782608695652	3934.065934065934	128.0	128.0	11.082786450718219	19.64838381390379	30.73117026462201	480.1795298075116	567.8567842074376	-1.816793893129771	6.7328244274809155	0.8702290076335878	-0.08395802098950525	0.4002998500749625	0.0944527736131934	
1.708950404639156E12	2.010869565217391	-6.445652173913043	3.2717391304347827	3931.135531135531	128.0	128.0	11.072184571288178	19.638142542617622	30.7103271139058	480.1803952670569	567.8511587203931	-2.3053435114503817	6.625954198473282	1.282442748091603	-0.08995502248875561	0.3988005997001499	0.08095952023988005	
1.7089504046586877E12	2.0	-6.456521739130435	3.2065217391304346	3931.135531135531	128.0	128.0	11.100384128139511	19.620256378681226	30.72064050682074	480.18104436171586	567.8532502476276	-3.0229007633587783	6.824427480916031	1.0381679389312977	-0.09295352323838081	0.416791604197901	0.08845577211394302	
1.7089504046782197E12	2.0217391304347827	-6.434782608695652	3.2391304347826084	3931.135531135531	128.0	128.0	11.103773844691974	19.622420027544507	30.72619387223648	480.18046738868566	567.8457495982349	-3.450381679389313	6.534351145038167	0.916030534351145	-0.07646176911544228	0.38980509745127434	0.09745127436281859	
1.7089504046977515E12	2.043478260869565	-6.423913043478261	3.184782608695652	3923.8095238095234	128.0	128.0	11.111130250827104	19.606192661069947	30.717322911897053	480.18133284823097	567.8397635030465	-4.244274809160305	6.473282442748092	0.6412213740458015	-0.08545727136431784	0.4197901049475262	0.08845577211394302	
1.7089504047172832E12	2.0543478260869565	-6.413043478260869	3.3478260869565215	3931.135531135531	128.0	128.0	11.117765440674477	19.595590781639906	30.713356222314385	480.18400134849566	567.8387538002436	-6.3206106870229	6.381679389312977	0.5190839694656488	-0.08545727136431784	0.4017991004497751	0.09895052473763118	
1.7089504047368152E12	2.0217391304347827	-6.456521739130435	3.282608695652174	3931.135531135531	128.0	128.0	11.11668361624284	19.591551970428462	30.708235586671304	480.18501105129855	567.845388990091	-7.480916030534351	6.6106870229007635	0.5801526717557252	-0.09295352323838081	0.40629685157421286	0.08845577211394302	
1.708950404756347E12	2.0217391304347827	-6.4021739130434785	3.184782608695652	3907.6923076923076	128.0	128.0	11.134137050406583	19.56897790062164	30.703114951028223	480.18854501110854	567.8381768272134	-5.129770992366412	6.946564885496183	0.916030534351145	-0.09895052473763118	0.4047976011994003	0.08995502248875561	
1.708950404775879E12	1.9891304347826086	-6.423913043478261	3.1630434782608696	3904.7619047619046	128.0	128.0	11.134930388323117	19.61167390485691	30.746604293180027	480.1878959164496	567.8360131783502	-4.9465648854961835	6.671755725190839	0.7480916030534351	-0.095952023988006	0.4077961019490255	0.0944527736131934	
1.7089504047954106E12	2.010869565217391	-6.4021739130434785	3.152173913043478	3931.135531135531	128.0	128.0	11.175679108581438	19.67131849185449	30.846997600435927	480.1910692681157	567.8331283131992	-4.488549618320611	6.595419847328244	1.1603053435114503	-0.09895052473763118	0.41079460269865065	0.0944527736131934	
1.7089504048149426E12	2.010869565217391	-6.434782608695652	3.184782608695652	3929.6703296703295	128.0	128.0	11.163779039833432	19.63244493394434	30.79622397377777	480.19121351137323	567.8140160815735	-4.8396946564885495	6.809160305343511	1.2519083969465647	-0.10344827586206896	0.4077961019490255	0.08695652173913043	
1.7089504048344744E12	2.010869565217391	-6.434782608695652	3.1630434782608696	3931.135531135531	128.0	128.0	11.14841713290419	19.57359368486329	30.72201081776748	480.1922232141761	567.8182712576713	-4.580152671755725	6.442748091603053	0.7786259541984732	-0.08395802098950525	0.41079460269865065	0.08695652173913043	
1.7089504048540063E12	2.0	-6.423913043478261	3.1630434782608696	3931.135531135531	128.0	128.0	11.139690415822319	19.527219477560458	30.666909893382776	480.19380989000916	567.8300992047905	-3.9236641221374042	6.671755725190839	1.0076335877862594	-0.08395802098950525	0.4002998500749625	0.10494752623688156	
1.708950404873538E12	1.9891304347826086	-6.445652173913043	3.141304347826087	3931.135531135531	128.0	128.0	11.140267388852525	19.516761841387968	30.657029230240493	480.19597353887247	567.8148094194901	-3.16030534351145	7.587786259541985	0.9618320610687022	-0.0914542728635682	0.41079460269865065	0.10494752623688156	
1.70895040489307E12	2.0	-6.423913043478261	3.1630434782608696	3931.135531135531	128.0	128.0	11.148994105934396	19.51178544900244	30.660779554936834	480.1952523225847	567.8178385278986	-4.030534351145038	7.2824427480916025	0.8854961832061068	-0.08845577211394302	0.4077961019490255	0.0944527736131934	
1.7089504049126018E12	2.010869565217391	-6.434782608695652	3.0652173913043477	3906.227106227106	128.0	128.0	11.157432336501163	19.45610755158753	30.61353988808869	480.1957571739861	567.8780600879264	-2.9618320610687023	6.763358778625954	0.5801526717557252	-0.07646176911544228	0.4047976011994003	0.10494752623688156	
1.7089504049321338E12	2.032608695652174	-6.4021739130434785	3.217391304347826	3913.5531135531132	128.0	128.0	11.187146447556788	20.51889187322758	31.70603832078437	480.1957571739861	567.1172490259706	-1.6793893129770991	6.641221374045801	0.7633587786259541	-0.08845577211394302	0.4002998500749625	0.10794602698650674	
1.7089504049516655E12	2.010869565217391	-6.413043478260869	3.3152173913043477	3929.6703296703295	128.0	128.0	11.180006406307985	20.59620625927523	31.776212665583216	480.1973438498192	567.0252218276527	-1.7404580152671756	6.931297709923664	0.5954198473282443	-0.08395802098950525	0.39280359820089955	0.0944527736131934	
1.7089504049711973E12	1.967391304347826	-6.565217391304348	2.7065217391304346	3931.135531135531	128.0	128.0	11.187579177329443	19.341794769977902	30.529373947307345	480.1968389984178	567.7644685226046	-3.9083969465648853	7.129770992366412	0.8396946564885496	-0.08245877061469264	0.40929535232383807	0.09295352323838081	
1.7089504049907292E12	1.9565217391304348	-6.282608695652174	3.8260869565217392	3932.6007326007325	128.0	128.0	11.235107330692689	19.39956419462731	30.634671525319998	480.1966947551602	567.9144815104582	-5.557251908396946	8.396946564885496	0.42748091603053434	-0.07646176911544228	0.4077961019490255	0.11244377811094453	
1.708950405010261E12	2.0217391304347827	-6.434782608695652	2.5543478260869565	3931.135531135531	128.0	128.0	11.178924581876348	19.47868162139435	30.6576062032707	480.1984256742508	567.8829643586832	-0.5038167938931297	11.16030534351145	0.8091603053435115	-0.0914542728635682	0.39730134932533734	0.10194902548725637	
1.708950405029793E12	1.9565217391304348	-6.3478260869565215	3.293478260869565	3931.135531135531	128.0	128.0	11.17820336558859	19.508251489192425	30.686454854781015	480.19835355262205	567.8815940477365	-4.488549618320611	6.748091603053435	0.732824427480916	-0.08095952023988005	0.4002998500749625	0.08695652173913043	
1.7089504050493247E12	1.9782608695652173	-6.554347826086956	3.2717391304347827	3931.135531135531	128.0	128.0	11.181016109110846	19.52988797782516	30.710904086936008	480.19849779587963	567.8648618298605	-4.229007633587786	5.206106870229007	0.41221374045801523	-0.08095952023988005	0.4077961019490255	0.10194902548725637	
1.7089504050688567E12	2.0543478260869565	-6.532608695652174	3.0978260869565215	3909.1575091575087	128.0	128.0	11.2064750440687	19.55534691278302	30.76182195685172	480.1965505119027	567.8630587891411	1.4351145038167938	5.908396946564885	0.4580152671755725	-0.09295352323838081	0.40629685157421286	0.09295352323838081	
1.7089504050883884E12	2.0217391304347827	-6.423913043478261	3.1739130434782608	3932.6007326007325	128.0	128.0	11.20099380028174	19.575252482325137	30.776246282606877	480.195468687471	567.8800073719034	0.5343511450381679	5.816793893129771	0.7938931297709924	-0.08845577211394302	0.41079460269865065	0.10194902548725637	
1.7089504051079204E12	2.043478260869565	-6.326086956521739	3.141304347826087	3931.135531135531	128.0	128.0	11.23301580345819	19.636772231670886	30.869788035129076	480.1931607953502	567.8928450218255	-1.8473282442748091	5.679389312977099	0.7175572519083969	-0.09295352323838081	0.4197901049475262	0.11094452773613193	
1.7089504051274521E12	2.0543478260869565	-6.315217391304348	3.1304347826086953	3929.6703296703295	128.0	128.0	11.252777129742757	19.690935574881504	30.94371270462426	480.1930165520927	567.9184482000409	-1.7404580152671756	5.969465648854961	0.7480916030534351	-0.0914542728635682	0.4077961019490255	0.07646176911544228	
1.7089504051469841E12	2.0217391304347827	-6.326086956521739	3.141304347826087	3931.135531135531	128.0	128.0	11.297059809811094	19.788299773728824	31.085359583539915	480.1920068492898	567.9086396585274	-2.1068702290076335	6.244274809160305	0.48854961832061067	-0.095952023988006	0.4047976011994003	0.09745127436281859	
1.7089504051665159E12	2.0652173913043477	-6.380434782608695	3.1630434782608696	3929.6703296703295	128.0	128.0	11.330596367191836	19.942063086278807	31.272659453470645	480.1910692681157	567.8952971572038	-2.396946564885496	6.549618320610687	0.5343511450381679	-0.09295352323838081	0.40629685157421286	0.09295352323838081	
1.7089504051860479E12	2.0652173913043477	-6.4021739130434785	3.217391304347826	3903.296703296703	128.0	128.0	11.322086014996293	19.97422933271281	31.296315347709104	480.19179048440344	567.8692612492158	-3.9847328244274807	6.625954198473282	0.549618320610687	-0.09295352323838081	0.41379310344827586	0.08845577211394302	
1.7089504052055796E12	2.0543478260869565	-6.445652173913043	3.2065217391304346	3931.135531135531	128.0	128.0	11.242247371941492	19.839289765273307	31.0815371372148	480.1907807816006	567.8127178922556	-5.114503816793893	6.442748091603053	0.732824427480916	-0.08245877061469264	0.41379310344827586	0.09295352323838081	
1.7089504052251113E12	2.043478260869565	-6.478260869565217	3.2282608695652173	3907.6923076923076	128.0	128.0	11.182891271459017	19.708389009045245	30.89128028050426	480.19150199788834	567.7814892269956	-4.152671755725191	6.564885496183206	1.083969465648855	-0.08245877061469264	0.41379310344827586	0.08845577211394302	
1.7089504052446433E12	1.9891304347826086	-6.434782608695652	3.2282608695652173	3932.6007326007325	128.0	128.0	11.151806849456651	19.57813734747617	30.72994419693282	480.19042017345674	567.7955529446069	-3.709923664122137	7.114503816793893	0.7480916030534351	-0.07796101949025487	0.4017991004497751	0.08845577211394302	
1.708950405264175E12	2.0217391304347827	-6.4021739130434785	3.1630434782608696	3932.6007326007325	128.0	128.0	11.109110845221382	19.54604322267094	30.655154067892322	480.18941047065385	567.7962741608947	-3.7251908396946565	6.931297709923664	0.8702290076335878	-0.10344827586206896	0.4077961019490255	0.09745127436281859	
1.708950405283707E12	2.0	-6.456521739130435	2.9891304347826084	3929.6703296703295	128.0	128.0	11.113510264576705	19.523829761007995	30.637340025584702	480.1893383490251	567.7915141333955	-2.9770992366412212	6.7328244274809155	1.3282442748091603	-0.07346326836581708	0.4047976011994003	0.10194902548725637	
1.7089504053032388E12	2.0217391304347827	-6.391304347826087	3.152173913043478	3906.227106227106	128.0	128.0	11.104134452835853	19.509405435252837	30.61353988808869	480.18796803807834	567.8179827711562	-5.526717557251908	6.763358778625954	1.2061068702290076	-0.08395802098950525	0.4077961019490255	0.0944527736131934	
1.7089504053227708E12	1.9565217391304348	-6.358695652173913	3.217391304347826	3931.135531135531	128.0	128.0	11.097643506246031	19.52188247703105	30.619525983277082	480.18796803807834	567.8287288938438	-2.9770992366412212	7.9541984732824424	1.083969465648855	-0.10344827586206896	0.41829085457271364	0.10194902548725637	
1.7089504053423025E12	2.0217391304347827	-6.456521739130435	3.119565217391304	3931.135531135531	128.0	128.0	11.094542276208673	19.55491418301036	30.649456459219035	480.188400767851	567.8344986241459	-6.870229007633587	7.114503816793893	1.3587786259541985	-0.07796101949025487	0.40629685157421286	0.07796101949025487	
1.7089504053618345E12	2.010869565217391	-6.445652173913043	3.25	3932.6007326007325	128.0	128.0	11.099951398366857	19.56984336016695	30.669794758533808	480.1863092406165	567.837671975812	-5.66412213740458	7.557251908396946	0.9618320610687022	-0.08995502248875561	0.40629685157421286	0.08545727136431784	
1.7089504053813662E12	2.032608695652174	-6.5	3.2065217391304346	3909.1575091575087	128.0	128.0	11.094325911322345	19.587945888989672	30.68227180031202	480.18674197038916	567.8575054237253	-6.900763358778626	7.679389312977099	1.099236641221374	-0.08845577211394302	0.4047976011994003	0.07946026986506746	
1.7089504054008982E12	2.043478260869565	-6.478260869565217	3.2282608695652173	3934.065934065934	128.0	128.0	11.103990209578301	19.586503456414157	30.69049366599246	480.18529953781365	567.8570726939527	-6.030534351145038	7.8473282442748085	0.9312977099236641	-0.0914542728635682	0.41079460269865065	0.09745127436281859	
1.70895040542043E12	2.0	-6.445652173913043	3.141304347826087	3931.135531135531	128.0	128.0	11.084445248180062	19.59638411955644	30.680829367736504	480.1855159027	567.8514472069081	-6.412213740458015	8.045801526717558	0.8091603053435115	-0.08395802098950525	0.4002998500749625	0.0944527736131934	
1.708950405439962E12	2.0217391304347827	-6.413043478260869	3.141304347826087	3929.6703296703295	128.0	128.0	11.083868275149856	19.588955591792534	30.67282386694239	480.18501105129855	567.864068491944	-5.923664122137405	7.343511450381679	1.0687022900763359	-0.07646176911544228	0.38530734632683655	0.08995502248875561	
1.7089504054594937E12	2.010869565217391	-6.380434782608695	3.108695652173913	3906.227106227106	128.0	128.0	11.089133154050488	19.584772537323538	30.673905691374028	480.184217713382	567.8596690725886	-5.480916030534351	7.2824427480916025	0.9770992366412213	-0.09745127436281859	0.40629685157421286	0.095952023988006	
1.7089504054790256E12	2.032608695652174	-6.423913043478261	3.108695652173913	3931.135531135531	128.0	128.0	11.082570085831891	19.586864064558036	30.66943415038993	480.18414559175324	567.8689727627007	-5.2824427480916025	7.068702290076335	1.1603053435114503	-0.07796101949025487	0.3988005997001499	0.09295352323838081	
1.7089504054985574E12	2.010869565217391	-6.467391304347826	3.0978260869565215	3932.6007326007325	128.0	128.0	11.076223382499622	19.586142848270278	30.6623662307699	480.1819098212612	567.8771225067524	-4.244274809160305	6.8396946564885495	0.8549618320610687	-0.08995502248875561	0.40929535232383807	0.10344827586206896	
1.708950405518089E12	2.0217391304347827	-6.478260869565217	3.152173913043478	3931.135531135531	128.0	128.0	11.060284502540172	19.5994853495938	30.659769852133973	480.18385710523813	567.896234738378	-4.3206106870229	7.32824427480916	0.732824427480916	-0.08395802098950525	0.4077961019490255	0.10494752623688156	
1.708950405537621E12	2.010869565217391	-6.510869565217391	3.141304347826087	3909.1575091575087	128.0	128.0	11.049610501481355	19.606625390842602	30.65623589232396	480.1829916456928	567.9087117801562	-4.290076335877862	6.702290076335878	0.6259541984732824	-0.10044977511244378	0.40929535232383807	0.09295352323838081	
1.7089504055571528E12	2.0217391304347827	-6.478260869565217	3.0869565217391304	3932.6007326007325	128.0	128.0	11.03670072993049	19.62602610898329	30.66272683891378	480.1827752808065	567.9312137283342	-3.312977099236641	6.6106870229007635	0.4580152671755725	-0.08845577211394302	0.39280359820089955	0.08995502248875561	
1.7089504055766848E12	2.010869565217391	-6.467391304347826	3.119565217391304	3931.135531135531	128.0	128.0	11.03634012178661	19.631795839285353	30.668135961071965	480.18313588895035	567.9458544189757	-2.8854961832061066	6.290076335877862	0.32061068702290074	-0.09295352323838081	0.41379310344827586	0.08545727136431784	
1.7089504055962166E12	2.010869565217391	-6.434782608695652	3.0978260869565215	3931.135531135531	128.0	128.0	11.038648013907435	19.643551664775806	30.682199678683244	480.17960192914035	567.9475853380663	-2.427480916030534	6.198473282442748	0.549618320610687	-0.09295352323838081	0.39430284857571213	0.095952023988006	
1.7089504056157485E12	2.010869565217391	-6.445652173913043	3.1304347826086953	3931.135531135531	128.0	128.0	11.023863080008399	19.664322693863234	30.688185773871634	480.1801067805418	567.9843673687419	-1.9083969465648853	6.106870229007633	0.2748091603053435	-0.08095952023988005	0.39730134932533734	0.09745127436281859	
1.7089504056352803E12	2.0217391304347827	-6.434782608695652	3.119565217391304	3928.205128205128	128.0	128.0	11.021410944630022	19.678170046588185	30.69958099121821	480.1795298075116	567.9832855443103	-2.0610687022900764	6.1679389312977095	0.2595419847328244	-0.08995502248875561	0.4017991004497751	0.10344827586206896	
1.7089504056548123E12	2.0	-6.478260869565217	3.141304347826087	3931.135531135531	128.0	128.0	11.015064241297752	19.69007011533619	30.705134356633945	480.17844798307993	568.0099705469573	-2.1221374045801524	6.458015267175572	0.564885496183206	-0.0914542728635682	0.4002998500749625	0.08695652173913043	
1.708950405674344E12	2.010869565217391	-6.478260869565217	3.141304347826087	3931.135531135531	128.0	128.0	11.020473363455936	19.694830142835393	30.71530350629133	480.1762843342167	568.0161008854033	-1.6946564885496183	6.65648854961832	0.7633587786259541	-0.07346326836581708	0.4002998500749625	0.08995502248875561	
1.708950405693876E12	2.010869565217391	-6.467391304347826	3.1739130434782608	3907.6923076923076	128.0	128.0	11.01167452474529	19.724255767375922	30.73593029212121	480.1759958477016	568.0466083343755	-1.9694656488549618	6.427480916030534	0.33587786259541985	-0.10044977511244378	0.39430284857571213	0.09895052473763118	
1.7089504057134077E12	2.0	-6.478260869565217	3.1630434782608696	3934.065934065934	128.0	128.0	11.013261200578357	19.729737011162882	30.742998211741238	480.1768613072469	568.0541811053969	-1.984732824427481	6.305343511450381	0.5190839694656488	-0.08545727136431784	0.40929535232383807	0.08845577211394302	
1.7089504057329397E12	2.010869565217391	-6.456521739130435	3.152173913043478	3931.135531135531	128.0	128.0	11.019103052509196	19.73868009313108	30.757783145640275	480.1773661586483	568.0577150652069	-1.5572519083969465	6.3969465648854955	0.6564885496183206	-0.08995502248875561	0.416791604197901	0.10344827586206896	
1.7089504057524714E12	2.0217391304347827	-6.467391304347826	3.141304347826087	3929.6703296703295	128.0	128.0	11.004390240238934	19.76248023062709	30.766870470866024	480.1774382802771	568.0950740689128	-1.2366412213740459	6.412213740458015	0.47328244274809156	-0.07796101949025487	0.3988005997001499	0.09895052473763118	
1.7089504057720032E12	2.0217391304347827	-6.456521739130435	3.152173913043478	3932.6007326007325	128.0	128.0	10.99638473944482	19.77603909683694	30.77242383628176	480.17491402326993	568.1045220022825	-2.0	6.3206106870229	0.7480916030534351	-0.08245877061469264	0.39430284857571213	0.09895052473763118	
1.7089504057915352E12	2.043478260869565	-6.445652173913043	3.1630434782608696	3928.205128205128	128.0	128.0	11.00186598323178	19.8133981005428	30.81526408377458	480.1743370502397	568.1218311931887	-1.984732824427481	6.473282442748092	0.6870229007633587	-0.07646176911544228	0.41529235382308843	0.08695652173913043	
1.708950405811067E12	2.032608695652174	-6.478260869565217	3.1739130434782608	3932.6007326007325	128.0	128.0	11.015713335956734	19.881408796478368	30.8971221324351	480.17419280698215	568.1292597209525	-2.381679389312977	6.671755725190839	0.6259541984732824	-0.0914542728635682	0.41529235382308843	0.10494752623688156	
1.7089504058305989E12	2.043478260869565	-6.445652173913043	3.184782608695652	3932.6007326007325	128.0	128.0	11.028334620992498	19.957208628321723	30.985543249314222	480.17397644209586	568.1610653592427	-2.396946564885496	6.717557251908397	0.5801526717557252	-0.08845577211394302	0.41529235382308843	0.10494752623688156	
1.7089504058501306E12	2.010869565217391	-6.445652173913043	3.2391304347826084	3907.6923076923076	128.0	128.0	11.026459458644327	19.885880337462467	30.912339796106792	480.17166854997504	568.1771484824596	-2.6412213740458013	6.2748091603053435	0.5190839694656488	-0.095952023988006	0.41079460269865065	0.10494752623688156	
1.7089504058696626E12	2.0217391304347827	-6.467391304347826	3.141304347826087	3932.6007326007325	128.0	128.0	10.994942306869305	19.87780271503958	30.872745021908884	480.17238976626277	568.1902746188969	-2.6717557251908395	6.625954198473282	0.9923664122137404	-0.08845577211394302	0.39280359820089955	0.10794602698650674	
1.7089504058891943E12	2.0217391304347827	-6.434782608695652	3.1739130434782608	3932.6007326007325	128.0	128.0	10.997322320618906	19.85890684830032	30.856229168919228	480.17275037440663	568.2341245691925	-2.519083969465649	6.916030534351145	0.5343511450381679	-0.08395802098950525	0.39280359820089955	0.10494752623688156	
1.7089504059087263E12	2.032608695652174	-6.467391304347826	3.119565217391304	3931.135531135531	128.0	128.0	10.986431954673762	19.867417200495865	30.853849155169627	480.1721734013764	568.248765259834	-3.0534351145038165	6.763358778625954	1.0229007633587786	-0.08545727136431784	0.4017991004497751	0.10344827586206896	
1.708950405928258E12	2.0	-6.456521739130435	3.184782608695652	3931.135531135531	128.0	128.0	10.986504076302538	19.877730593410803	30.86423466971334	480.1713079418311	568.2750896543372	-2.3206106870229006	6.931297709923664	0.9007633587786259	-0.095952023988006	0.4077961019490255	0.08695652173913043	
1.70895040594779E12	2.043478260869565	-6.456521739130435	3.0978260869565215	3928.205128205128	128.0	128.0	11.024728539553708	19.837630967811464	30.86235950736517	480.1697212659981	568.3618519737545	-1.8931297709923662	6.748091603053435	0.9618320610687022	-0.09295352323838081	0.41379310344827586	0.09895052473763118	
1.7089504059673218E12	2.0543478260869565	-6.434782608695652	3.2391304347826084	3931.135531135531	128.0	128.0	10.995952009672166	21.309921897640457	32.30587390731262	480.1718849148613	567.2030737642139	-2.396946564885496	6.961832061068702	0.5038167938931297	-0.095952023988006	0.4002998500749625	0.09745127436281859	
1.7089504059868538E12	2.032608695652174	-6.456521739130435	3.3369565217391304	3931.135531135531	128.0	128.0	11.058986313222208	20.30548397368002	31.364470286902225	480.17037036065705	567.7612230493097	-4.061068702290076	7.0534351145038165	0.6412213740458015	-0.095952023988006	0.4077961019490255	0.08695652173913043	
1.7089504060063855E12	2.0	-6.380434782608695	3.152173913043478	3907.6923076923076	128.0	128.0	11.138897077905785	19.72079392919468	30.859691007100466	480.1682067117938	568.490661202748	-1.3435114503816794	5.49618320610687	0.2595419847328244	-0.08245877061469264	0.40629685157421286	0.09895052473763118	
1.7089504060259172E12	2.043478260869565	-6.5978260869565215	3.010869565217391	3932.6007326007325	128.0	128.0	11.048817163564822	19.918118705525245	30.966935869090065	480.16914429296787	568.4660677273355	-7.114503816793893	6.671755725190839	0.9465648854961831	-0.08545727136431784	0.40929535232383807	0.095952023988006	
1.7089504060454492E12	2.032608695652174	-6.380434782608695	3.293478260869565	3929.6703296703295	128.0	128.0	11.040378932998054	19.948121303095974	30.98850023609403	480.1698655092556	568.4804199314618	0.0	9.862595419847327	0.7786259541984732	-0.07496251874062969	0.41379310344827586	0.09895052473763118	
1.708950406064981E12	1.967391304347826	-6.467391304347826	3.0652173913043477	3929.6703296703295	128.0	128.0	11.064467557009168	19.984037874226317	31.048505431235487	480.16979338762684	568.5052297717607	-3.16030534351145	6.778625954198473	1.099236641221374	-0.095952023988006	0.4002998500749625	0.10794602698650674	
1.708950406084513E12	2.0	-6.532608695652174	3.260869565217391	3932.6007326007325	128.0	128.0	11.06136632697181	20.0168532153193	31.078219542291112	480.16712488736215	568.5191492461145	-3.0229007633587783	6.7328244274809155	1.0687022900763359	-0.08395802098950525	0.4077961019490255	0.0944527736131934	
1.7089504061040447E12	2.0760869565217392	-6.576086956521739	3.2065217391304346	3928.205128205128	128.0	128.0	11.09201801920152	20.05421221902516	31.146230238226682	480.16539396827153	568.5669658859928	1.618320610687023	6.381679389312977	0.9007633587786259	-0.08395802098950525	0.4047976011994003	0.09745127436281859	
1.7089504061235767E12	2.032608695652174	-6.5	3.2282608695652173	3931.135531135531	128.0	128.0	11.126420036127572	20.079959640498117	31.20637967662569	480.1642400222111	568.5963915105333	2.091603053435114	6.076335877862595	1.0687022900763359	-0.08845577211394302	0.41079460269865065	0.10194902548725637	
1.7089504061431084E12	2.0543478260869565	-6.423913043478261	3.2282608695652173	3931.135531135531	128.0	128.0	11.156566876955853	20.179054758436056	31.33562163539191	480.16301395452194	568.6759416670731	0.15267175572519084	5.816793893129771	1.1450381679389312	-0.0914542728635682	0.4002998500749625	0.10194902548725637	
1.7089504061626404E12	2.0543478260869565	-6.391304347826087	3.1956521739130435	3906.227106227106	128.0	128.0	11.201065921910516	20.24547877853856	31.446544700449074	480.1609945489162	568.7238304285802	-0.15267175572519084	5.908396946564885	1.0076335877862594	-0.08845577211394302	0.4047976011994003	0.08695652173913043	
1.708950406182172E12	2.032608695652174	-6.391304347826087	3.260869565217391	3932.6007326007325	128.0	128.0	11.247512250842124	20.364840074162494	31.61235232500462	480.1616436435752	568.7552033370976	-0.7786259541984732	6.091603053435114	0.7480916030534351	-0.0914542728635682	0.4002998500749625	0.0944527736131934	
1.708950406201704E12	2.043478260869565	-6.413043478260869	3.2717391304347827	3931.135531135531	128.0	128.0	11.282274875912057	20.483696518384995	31.765971394297054	480.16229273823416	568.7433753899784	-1.129770992366412	6.625954198473282	1.0229007633587786	-0.08395802098950525	0.4002998500749625	0.08995502248875561	
1.7089504062212358E12	2.0543478260869565	-6.456521739130435	3.282608695652174	3931.135531135531	128.0	128.0	11.26561477966485	20.500789344404858	31.76640412406971	480.16113879217374	568.6962799663878	-1.114503816793893	6.183206106870228	0.8702290076335878	-0.0914542728635682	0.4047976011994003	0.07646176911544228	
1.7089504062407678E12	2.032608695652174	-6.467391304347826	3.282608695652174	3931.135531135531	128.0	128.0	11.177265784414505	20.326399246024998	31.503665030439503	480.16553821152905	568.6372123524204	-1.5725190839694656	6.213740458015267	0.3511450381679389	-0.08995502248875561	0.40629685157421286	0.08845577211394302	
1.7089504062602996E12	2.0543478260869565	-6.467391304347826	3.3152173913043477	3929.6703296703295	128.0	128.0	11.136805550671287	20.224996235966234	31.36180178663752	480.16409577895354	568.604541254585	-1.9083969465648853	6.5038167938931295	0.7938931297709924	-0.095952023988006	0.4077961019490255	0.08995502248875561	
1.7089504062798313E12	2.0217391304347827	-6.445652173913043	3.293478260869565	3931.135531135531	128.0	128.0	11.112933291546499	20.132752672762003	31.2456859643085	480.1651054817564	568.6026660922369	-1.3282442748091603	6.305343511450381	0.6412213740458015	-0.08845577211394302	0.4077961019490255	0.10494752623688156	
1.7089504062993633E12	2.0217391304347827	-6.467391304347826	3.293478260869565	3931.135531135531	128.0	128.0	11.103557479805646	20.105130088940868	31.208687568746516	480.16568245478663	568.613556458182	-1.3893129770992365	6.259541984732824	0.8854961832061068	-0.08995502248875561	0.4017991004497751	0.09895052473763118	
1.708950406318895E12	2.043478260869565	-6.380434782608695	3.3369565217391304	3906.227106227106	128.0	128.0	11.112789048288947	20.095537912313688	31.208326960602637	480.1664757927032	568.6227159050364	0.12213740458015267	6.427480916030534	1.083969465648855	-0.07796101949025487	0.3988005997001499	0.10344827586206896	
1.708950406338427E12	2.0217391304347827	-6.413043478260869	3.0978260869565215	3904.7619047619046	128.0	128.0	11.103413236548095	20.112486495076	31.215899731624095	480.16741337387725	568.6462996776462	-2.687022900763359	6.687022900763359	0.9618320610687022	-0.08245877061469264	0.3988005997001499	0.09295352323838081	
1.7089504063579587E12	1.9891304347826086	-6.4021739130434785	3.3804347826086953	3932.6007326007325	128.0	128.0	11.103124750032991	20.12647809105851	31.2296028410915	480.16625942781684	568.648607569767	-2.4122137404580153	6.977099236641221	1.0534351145038168	-0.07796101949025487	0.41379310344827586	0.08095952023988005	
1.7089504063774907E12	2.0217391304347827	-6.434782608695652	3.2391304347826084	3929.6703296703295	128.0	128.0	11.104062331207077	20.149701255524313	31.253763586731388	480.1690000497103	568.6809901810873	-2.2748091603053435	7.236641221374046	0.9465648854961831	-0.06596701649175413	0.41529235382308843	0.08695652173913043	
1.7089504063970225E12	2.0217391304347827	-6.467391304347826	3.3478260869565215	3931.135531135531	128.0	128.0	11.112861169917723	20.145950930827972	31.258812100745693	480.171019455316	568.6883465872224	-3.7709923664122136	7.145038167938931	1.2061068702290076	-0.08095952023988005	0.4077961019490255	0.08995502248875561	
1.7089504064165544E12	2.0217391304347827	-6.5	3.2717391304347827	3928.205128205128	128.0	128.0	11.108605993819952	20.17047228461174	31.27907827843169	480.17123582020236	568.6928902498353	-3.0229007633587783	7.374045801526718	0.8244274809160305	-0.08395802098950525	0.41529235382308843	0.08695652173913043	
1.7089504064360862E12	2.032608695652174	-6.413043478260869	3.260869565217391	3931.135531135531	128.0	128.0	11.106153858441575	20.160303134954354	31.266456993395927	480.17238976626277	568.6904381144569	-2.7938931297709924	7.6183206106870225	1.1755725190839694	-0.07796101949025487	0.40929535232383807	0.08845577211394302	
1.7089504064556182E12	2.0217391304347827	-6.413043478260869	3.3043478260869565	3931.135531135531	128.0	128.0	11.106081736812799	20.16088010798456	31.266961844797358	480.17267825277787	568.7043575888107	-3.297709923664122	7.648854961832061	0.8396946564885496	-0.09295352323838081	0.4017991004497751	0.09895052473763118	
1.70895040647515E12	2.0217391304347827	-6.423913043478261	3.2065217391304346	3907.6923076923076	128.0	128.0	11.100456249768287	20.148330944577573	31.24878719434586	480.1741206853534	568.7106321705141	-3.480916030534351	7.145038167938931	1.0229007633587786	-0.09295352323838081	0.40929535232383807	0.09295352323838081	
1.708950406494682E12	2.043478260869565	-6.380434782608695	3.282608695652174	3932.6007326007325	128.0	128.0	11.08927739730804	20.160663743098233	31.24994114040627	480.1774382802771	568.7006072641143	-3.282442748091603	7.007633587786259	0.8091603053435115	-0.08095952023988005	0.4077961019490255	0.08995502248875561	
1.7089504065142136E12	2.010869565217391	-6.423913043478261	3.3478260869565215	3931.135531135531	128.0	128.0	11.093604695034587	20.14991762041064	31.243522315445226	480.1761400909591	568.7156085628997	-4.33587786259542	6.793893129770992	0.7175572519083969	-0.08395802098950525	0.4077961019490255	0.08695652173913043	
1.7089504065337456E12	2.0217391304347827	-6.467391304347826	3.3043478260869565	3929.6703296703295	128.0	128.0	11.087546478217421	20.138883011207945	31.226429489425364	480.1782316181936	568.7178443333918	-3.6030534351145036	6.702290076335878	0.7480916030534351	-0.08995502248875561	0.416791604197901	0.08095952023988005	
1.7089504065532773E12	2.032608695652174	-6.434782608695652	3.3043478260869565	3931.135531135531	128.0	128.0	11.090791951512331	20.146095174085524	31.236887125597853	480.1785201047087	568.7252728611556	-3.3435114503816794	7.114503816793893	0.5343511450381679	-0.09745127436281859	0.40929535232383807	0.09295352323838081	
1.708950406572809E12	2.010869565217391	-6.456521739130435	3.25	3932.6007326007325	128.0	128.0	11.077016720416156	20.144580619881232	31.221597340297386	480.18061163194324	568.7177000901341	-3.16030534351145	7.038167938931298	0.6717557251908397	-0.09295352323838081	0.416791604197901	0.09295352323838081	
1.708950406592341E12	2.032608695652174	-6.445652173913043	3.2065217391304346	3931.135531135531	128.0	128.0	11.089854370338246	20.15640856700046	31.246262937338706	480.18205406451875	568.7262104423297	-2.8854961832061066	6.3969465648854955	0.549618320610687	-0.08095952023988005	0.4047976011994003	0.08395802098950525	
1.7089504066118728E12	2.010869565217391	-6.391304347826087	3.2391304347826084	3931.135531135531	128.0	128.0	11.084445248180062	20.132392064618116	31.21683731279818	480.1829916456928	568.7339995782376	-2.8702290076335877	6.3969465648854955	0.6870229007633587	-0.08995502248875561	0.40629685157421286	0.08845577211394302	
1.7089504066314048E12	2.010869565217391	-6.413043478260869	3.2717391304347827	3906.227106227106	128.0	128.0	11.085743437498026	20.14256121427551	31.228304651773534	480.1846504431547	568.730609861685	-3.5114503816793894	6.717557251908397	0.732824427480916	-0.08545727136431784	0.3988005997001499	0.09295352323838081	
1.7089504066509365E12	2.010869565217391	-6.4021739130434785	3.2717391304347827	3934.065934065934	128.0	128.0	11.072689422689608	20.152802485561672	31.22549190825128	480.1869583352755	568.7449620658115	-3.5877862595419847	7.068702290076335	0.5190839694656488	-0.08995502248875561	0.40629685157421286	0.095952023988006	
1.7089504066704685E12	2.010869565217391	-6.4021739130434785	3.293478260869565	3931.135531135531	128.0	128.0	11.079036126021878	20.153956431622085	31.23299255764396	480.1859486324726	568.7363074703584	-3.2671755725190836	6.625954198473282	0.6870229007633587	-0.08245877061469264	0.4017991004497751	0.09295352323838081	
1.7089504066900002E12	2.0217391304347827	-6.4021739130434785	3.2282608695652173	3931.135531135531	128.0	128.0	11.068794854735716	20.14825882294879	31.217053677684508	480.18739106504813	568.7490729986516	-3.3587786259541983	6.748091603053435	0.9007633587786259	-0.06746626686656672	0.40629685157421286	0.08845577211394302	
1.7089504067095322E12	2.010869565217391	-6.391304347826087	3.2717391304347827	3932.6007326007325	128.0	128.0	11.050475961026665	20.160014648439244	31.21049060946591	480.1872468217906	568.754770607325	-3.2519083969465647	7.083969465648854	0.7480916030534351	-0.08845577211394302	0.4047976011994003	0.09745127436281859	
1.708950406729064E12	2.010869565217391	-6.358695652173913	3.25	3932.6007326007325	128.0	128.0	11.052928096405042	20.171626230672153	31.224554327077193	480.18796803807834	568.7596748780817	-3.5572519083969465	7.2824427480916025	0.6870229007633587	-0.08245877061469264	0.416791604197901	0.095952023988006	
1.708950406748596E12	2.032608695652174	-6.380434782608695	3.184782608695652	3929.6703296703295	128.0	128.0	11.04780746076196	20.170832892755612	31.218640353517575	480.1883286462222	568.7535445396358	-3.83206106870229	7.114503816793893	0.8244274809160305	-0.07796101949025487	0.40929535232383807	0.09295352323838081	
1.7089504067681277E12	2.0217391304347827	-6.380434782608695	3.1630434782608696	3931.135531135531	128.0	128.0	11.038792257164987	20.173717757906644	31.212510015071633	480.18767955156324	568.7565015264156	-3.6946564885496183	6.931297709923664	0.5343511450381679	-0.0914542728635682	0.42278860569715143	0.08695652173913043	
1.7089504067876597E12	2.010869565217391	-6.380434782608695	3.1739130434782608	3907.6923076923076	128.0	128.0	11.029849175196789	20.179992339610138	31.20984151480693	480.18969895716896	568.7743155687232	-4.0	6.946564885496183	0.41221374045801523	-0.0914542728635682	0.4332833583208396	0.0944527736131934	
1.7089504068071914E12	2.043478260869565	-6.4021739130434785	3.25	3932.6007326007325	128.0	128.0	11.015424849441631	20.18302144801872	31.198446297460354	480.1894825922826	568.7680409870197	-5.007633587786259	7.206106870229007	0.8854961832061068	-0.07796101949025487	0.40629685157421286	0.09295352323838081	
1.7089504068267231E12	2.043478260869565	-6.391304347826087	3.2282608695652173	3931.135531135531	128.0	128.0	11.006409645844656	20.196580314228573	31.20298996007323	480.18883349762365	568.7706373656556	-5.633587786259541	7.0534351145038165	0.8702290076335878	-0.08995502248875561	0.4017991004497751	0.095952023988006	
1.7089504068462551E12	2.043478260869565	-6.4021739130434785	3.2391304347826084	3929.6703296703295	128.0	128.0	11.009078146109362	20.240646629410584	31.249724775519944	480.1865977271316	568.7657330948989	-6.183206106870228	7.221374045801526	0.9007633587786259	-0.08395802098950525	0.4047976011994003	0.09745127436281859	
1.7089504068657869E12	2.010869565217391	-6.4021739130434785	3.282608695652174	3903.296703296703	128.0	128.0	11.03273404034782	20.32553378647969	31.358267826827507	480.18767955156324	568.7746040552383	-6.687022900763359	7.374045801526718	0.9618320610687022	-0.08845577211394302	0.4002998500749625	0.09745127436281859	
1.7089504068853188E12	2.0217391304347827	-6.423913043478261	3.2717391304347827	3929.6703296703295	128.0	128.0	11.005399943041795	20.31471554216332	31.320115485205115	480.18854501110854	568.761189432286	-6.549618320610687	6.7328244274809155	0.8854961832061068	-0.08845577211394302	0.4002998500749625	0.10194902548725637	
1.7089504069048506E12	2.032608695652174	-6.445652173913043	3.2282608695652173	3901.8315018315016	128.0	128.0	10.981816170432111	20.237617521001997	31.21943369143411	480.18703045690427	568.7743155687232	-6.7328244274809155	6.946564885496183	1.0229007633587786	-0.09895052473763118	0.4047976011994003	0.08395802098950525	
1.7089504069243826E12	2.0217391304347827	-6.423913043478261	3.1630434782608696	3931.135531135531	128.0	128.0	10.983114359750076	20.213384653733332	31.196499013483407	480.1857322675863	568.7792919611087	-6.381679389312977	7.038167938931298	1.2061068702290076	-0.095952023988006	0.4077961019490255	0.08395802098950525	
1.7089504069439143E12	2.032608695652174	-6.434782608695652	3.141304347826087	3906.227106227106	128.0	128.0	10.973594304751671	20.203936720363703	31.177531025115375	480.1853716594424	568.7703488791406	-6.488549618320611	7.435114503816793	0.9007633587786259	-0.07796101949025487	0.3988005997001499	0.09295352323838081	
1.7089504069634463E12	2.043478260869565	-6.423913043478261	3.152173913043478	3931.135531135531	128.0	128.0	10.957294816648343	20.21670224865702	31.17399706530536	480.18342437546545	568.7863598807287	-5.221374045801526	6.702290076335878	0.5190839694656488	-0.09745127436281859	0.40629685157421286	0.095952023988006	
1.708950406982978E12	2.0543478260869565	-6.456521739130435	3.108695652173913	3931.135531135531	128.0	128.0	10.96111726297346	20.164197702908243	31.125314965881703	480.18457832152586	568.8328062096604	-3.7557251908396947	6.641221374045801	0.7480916030534351	-0.09745127436281859	0.40929535232383807	0.07796101949025487	
1.70895040700251E12	2.043478260869565	-6.467391304347826	3.184782608695652	3929.6703296703295	128.0	128.0	10.999269604595852	21.096730362979223	32.095999967575075	480.1824146726626	568.1697199546958	-2.564885496183206	6.625954198473282	0.7175572519083969	-0.08095952023988005	0.4077961019490255	0.08995502248875561	
1.7089504070220417E12	2.032608695652174	-6.445652173913043	3.369565217391304	3931.135531135531	128.0	128.0	10.97294521009269	21.424090435992532	32.39703564608522	480.18133284823097	567.9064038880354	-3.099236641221374	7.343511450381679	1.4198473282442747	-0.08845577211394302	0.4047976011994003	0.0944527736131934	
1.7089504070415737E12	2.0	-6.554347826086956	2.75	3929.6703296703295	128.0	128.0	11.022853377205537	19.966295953547473	30.989149330753012	480.17902495611014	568.8844452958638	-5.175572519083969	5.450381679389313	1.1603053435114503	-0.08545727136431784	0.3913043478260869	0.08095952023988005	
1.7089504070611055E12	1.9456521739130435	-6.25	3.858695652173913	3931.135531135531	128.0	128.0	11.008501173079155	20.132969037648323	31.14147021072748	480.1799625372842	568.9054326898375	-1.66412213740458	8.885496183206106	0.04580152671755725	-0.07646176911544228	0.41829085457271364	0.0944527736131934	
1.7089504070806372E12	2.032608695652174	-6.489130434782608	2.5869565217391304	3932.6007326007325	128.0	128.0	10.933494679152332	20.23502114236607	31.1685158215184	480.1791691993677	568.8891332017342	-7.022900763358779	8.80916030534351	1.0381679389312977	-0.0914542728635682	0.4002998500749625	0.0944527736131934	
1.7089504071001692E12	2.0217391304347827	-6.315217391304348	3.217391304347826	3907.6923076923076	128.0	128.0	10.919286718283502	20.285794769024225	31.205081487307726	480.1759958477016	568.892450796658	-3.679389312977099	8.076335877862595	1.099236641221374	-0.07646176911544228	0.41529235382308843	0.08395802098950525	
1.708950407119701E12	1.934782608695652	-6.510869565217391	3.152173913043478	3932.6007326007325	128.0	128.0	10.922460069949636	20.30187789224123	31.224337962190866	480.17563523955766	568.8893495666206	-7.465648854961832	6.519083969465648	1.0229007633587786	-0.08095952023988005	0.4047976011994003	0.08695652173913043	
1.708950407139233E12	2.032608695652174	-6.554347826086956	3.1630434782608696	3932.6007326007325	128.0	128.0	10.933999530553763	20.343564193673636	31.2775637242274	480.1721734013764	568.913005460859	-5.541984732824427	6.290076335877862	1.0076335877862594	-0.095952023988006	0.41529235382308843	0.10194902548725637	
1.7089504071587646E12	2.043478260869565	-6.510869565217391	3.1630434782608696	3931.135531135531	128.0	128.0	10.936812274076019	20.37637953476662	31.31319180884264	480.16979338762684	568.9267806919552	-1.5267175572519083	6.015267175572519	0.8091603053435115	-0.095952023988006	0.4047976011994003	0.08395802098950525	
1.7089504071782966E12	2.010869565217391	-6.456521739130435	3.141304347826087	3932.6007326007325	128.0	128.0	10.959458465511617	20.427297404682328	31.386755870193944	480.16611518455926	568.9665197094107	-2.7938931297709924	6.213740458015267	0.7480916030534351	-0.095952023988006	0.39730134932533734	0.10194902548725637	
1.7089504071978284E12	2.043478260869565	-6.423913043478261	3.108695652173913	3931.135531135531	128.0	128.0	10.979508278311286	20.489466248687062	31.46897452699835	480.1660430629305	568.9937095634591	-2.7938931297709924	5.83206106870229	0.9312977099236641	-0.08395802098950525	0.39730134932533734	0.09745127436281859	
1.7089504072173604E12	2.0543478260869565	-6.4021739130434785	3.1630434782608696	3931.135531135531	128.0	128.0	11.015929700843062	20.57319945969575	31.589129160538814	480.16553821152905	569.0219812419392	-2.4885496183206106	5.9541984732824424	0.9618320610687022	-0.08845577211394302	0.4077961019490255	0.09745127436281859	
1.708950407236892E12	2.032608695652174	-6.413043478260869	3.2065217391304346	3931.135531135531	128.0	128.0	11.046725636330324	20.73467978652475	31.781405422855073	480.16229273823416	569.0232073096284	-2.33587786259542	5.9541984732824424	0.9312977099236641	-0.08245877061469264	0.39430284857571213	0.09295352323838081	
1.708950407256424E12	2.043478260869565	-6.467391304347826	3.152173913043478	3906.227106227106	128.0	128.0	11.04903352845115	20.774130317465108	31.823163845916255	480.1620763733478	568.9908246983081	-2.2748091603053435	6.381679389312977	0.7633587786259541	-0.08245877061469264	0.39430284857571213	0.09895052473763118	
1.7089504072759558E12	2.043478260869565	-6.445652173913043	3.1956521739130435	3931.135531135531	128.0	128.0	10.947558396763611	20.674963077898393	31.622521474662005	480.1604896975148	568.9128612176015	-2.1221374045801524	6.564885496183206	0.6717557251908397	-0.07646176911544228	0.4047976011994003	0.08695652173913043	
1.7089504072954878E12	2.0543478260869565	-6.478260869565217	3.25	3932.6007326007325	128.0	128.0	10.896784770105455	20.543268983753798	31.440053753859253	480.1612109138025	568.8769446464711	-2.2900763358778624	6.229007633587786	0.7175572519083969	-0.0914542728635682	0.4047976011994003	0.10794602698650674	
1.7089504073150195E12	2.0217391304347827	-6.456521739130435	3.2282608695652173	3929.6703296703295	128.0	128.0	10.84355900806892	20.423258593470884	31.266817601539806	480.1591915081968	568.8600681853376	-2.1068702290076335	6.381679389312977	0.8244274809160305	-0.0914542728635682	0.41529235382308843	0.08695652173913043	
1.7089504073345513E12	2.010869565217391	-6.434782608695652	3.184782608695652	3904.7619047619046	128.0	128.0	10.816369154020448	20.386548684424007	31.202917838444453	480.1598406028558	568.8492499410212	-1.129770992366412	6.213740458015267	1.0076335877862594	-0.07796101949025487	0.40929535232383807	0.09895052473763118	
1.7089504073540833E12	1.9782608695652173	-6.510869565217391	3.0	3931.135531135531	128.0	128.0	10.804036355499788	20.363253398329427	31.167289753829213	480.15789331887885	568.8617991044282	-0.8091603053435115	5.557251908396946	0.8702290076335878	-0.09295352323838081	0.4017991004497751	0.08545727136431784	
1.708950407373615E12	2.010869565217391	-6.456521739130435	3.1739130434782608	3932.6007326007325	128.0	128.0	10.801295733606308	20.353877586588574	31.15517332019488	480.15609027815947	568.8654773074958	-0.12213740458015267	6.351145038167939	0.8702290076335878	-0.08845577211394302	0.4047976011994003	0.10194902548725637	
1.708950407393147E12	1.9891304347826086	-6.380434782608695	3.2717391304347827	3931.135531135531	128.0	128.0	10.777351352852746	20.374648615676	31.151999968528745	480.15515269698534	568.8668476184425	0.7786259541984732	6.3969465648854955	0.9465648854961831	-0.09895052473763118	0.4047976011994003	0.09745127436281859	
1.7089504074126787E12	2.0217391304347827	-6.434782608695652	3.1956521739130435	3906.227106227106	128.0	128.0	10.79098234069137	20.38085107575072	31.171833416442087	480.15580179164436	568.8736991731762	-1.9694656488549618	5.908396946564885	0.7786259541984732	-0.08845577211394302	0.4077961019490255	0.08995502248875561	
1.7089504074322107E12	2.0217391304347827	-6.445652173913043	3.260869565217391	3932.6007326007325	128.0	128.0	10.79321811118342	20.39130871192321	31.184526823106626	480.1553690618717	568.8747809976079	-1.282442748091603	6.366412213740458	0.5343511450381679	-0.07796101949025487	0.40629685157421286	0.08845577211394302	
1.7089504074517424E12	1.9891304347826086	-6.489130434782608	3.2391304347826084	3932.6007326007325	128.0	128.0	10.76819190599822	20.414964606161668	31.183156512159886	480.152700561607	568.8801901197661	-2.4427480916030535	6.580152671755725	0.3969465648854962	-0.07796101949025487	0.40929535232383807	0.09895052473763118	
1.7089504074712744E12	2.0543478260869565	-6.5	3.25	3931.135531135531	128.0	128.0	10.797184800766088	20.398232388285685	31.19541718905177	480.1524120750919	568.875718578782	-1.5725190839694656	7.1603053435114505	0.38167938931297707	-0.09745127436281859	0.40629685157421286	0.07796101949025487	
1.7089504074908062E12	2.043478260869565	-6.456521739130435	3.2391304347826084	3932.6007326007325	128.0	128.0	10.78276047501093	20.398737239687115	31.181497714698043	480.15262843997823	568.8675688347303	-2.1221374045801524	6.977099236641221	0.6717557251908397	-0.10344827586206896	0.4077961019490255	0.0944527736131934	
1.7089504075103381E12	2.0217391304347827	-6.445652173913043	3.2717391304347827	3932.6007326007325	128.0	128.0	10.781318042435414	20.390299009120348	31.17161705155576	480.15161873717534	568.8555966443535	-2.717557251908397	7.541984732824427	0.732824427480916	-0.10044977511244378	0.39430284857571213	0.11094452773613193	
1.7089504075298699E12	2.032608695652174	-6.423913043478261	3.217391304347826	3931.135531135531	128.0	128.0	10.772447082095992	20.371691628896194	31.144138710992184	480.15190722369044	568.8581209013606	-2.900763358778626	7.129770992366412	0.8854961832061068	-0.0704647676161919	0.41379310344827586	0.09295352323838081	
1.7089504075494019E12	2.0217391304347827	-6.434782608695652	3.2282608695652173	3932.6007326007325	128.0	128.0	10.767975541111893	20.357123059883484	31.125098600995376	480.1508253992588	568.8589142392772	-2.946564885496183	6.885496183206107	0.8702290076335878	-0.08095952023988005	0.41079460269865065	0.10194902548725637	
1.7089504075689336E12	2.032608695652174	-6.456521739130435	3.2717391304347827	3907.6923076923076	128.0	128.0	10.764513702930655	20.353300613558368	31.11781431648902	480.1499599397135	568.8423262646587	-3.297709923664122	6.793893129770992	0.6717557251908397	-0.08545727136431784	0.41379310344827586	0.08095952023988005	
1.7089504075884656E12	2.0652173913043477	-6.489130434782608	3.2717391304347827	3932.6007326007325	128.0	128.0	10.763359756870242	20.337722341742797	31.101082098613038	480.1503205478574	568.8433359674616	-3.618320610687023	7.007633587786259	0.9312977099236641	-0.08395802098950525	0.39280359820089955	0.08695652173913043	
1.7089504076079973E12	2.043478260869565	-6.478260869565217	3.260869565217391	3932.6007326007325	128.0	128.0	10.762494297324933	20.334116260304008	31.09661055762894	480.14895023691065	568.8367007776143	-3.679389312977099	6.778625954198473	0.916030534351145	-0.08395802098950525	0.4002998500749625	0.10194902548725637	
1.708950407627529E12	2.043478260869565	-6.478260869565217	3.2282608695652173	3929.6703296703295	128.0	128.0	10.752829999068975	20.335342327993196	31.08817232706217	480.1499599397135	568.8405953455681	-3.709923664122137	6.549618320610687	0.6412213740458015	-0.08095952023988005	0.41829085457271364	0.10194902548725637	
1.708950407647061E12	2.043478260869565	-6.456521739130435	3.2391304347826084	3931.135531135531	128.0	128.0	10.75102695834958	20.33440474681911	31.08543170516869	480.15039266948617	568.8211946274274	-3.618320610687023	6.65648854961832	0.6717557251908397	-0.10344827586206896	0.4077961019490255	0.08395802098950525	
1.7089504076665928E12	2.0217391304347827	-6.445652173913043	3.2717391304347827	3932.6007326007325	128.0	128.0	10.746555417365482	20.33267382772849	31.079229245093973	480.1495993315696	568.8377826020459	-3.7557251908396947	6.564885496183206	0.7633587786259541	-0.08995502248875561	0.4017991004497751	0.08845577211394302	
1.7089504076861248E12	2.032608695652174	-6.478260869565217	3.282608695652174	3931.135531135531	128.0	128.0	10.759753675431453	20.320413150836607	31.08016682626806	480.14923872342575	568.8253055602677	-3.5572519083969465	6.427480916030534	0.7786259541984732	-0.07646176911544228	0.4047976011994003	0.09745127436281859	
1.7089504077056565E12	2.043478260869565	-6.467391304347826	3.2065217391304346	3931.135531135531	128.0	128.0	10.765162797589637	20.31933132640497	31.084494123994606	480.1498878180847	568.812684275232	-3.618320610687023	6.6106870229007635	0.9312977099236641	-0.07646176911544228	0.4047976011994003	0.09745127436281859	
1.7089504077251885E12	2.0217391304347827	-6.5	3.2282608695652173	3907.6923076923076	128.0	128.0	10.77179798743701	20.31918708314742	31.090985070584427	480.1495993315696	568.8209782625411	-2.8702290076335877	6.870229007633587	0.8091603053435115	-0.08245877061469264	0.39430284857571213	0.10344827586206896	
1.7089504077447202E12	2.032608695652174	-6.478260869565217	3.260869565217391	3932.6007326007325	128.0	128.0	10.775836798648454	20.310676730951876	31.086513529600328	480.1490944801682	568.8119630589441	-2.381679389312977	6.99236641221374	0.4580152671755725	-0.07796101949025487	0.39430284857571213	0.095952023988006	
1.7089504077642522E12	2.0	-6.510869565217391	3.260869565217391	3931.135531135531	128.0	128.0	10.789972637888509	20.30238274364266	31.092355381531167	480.1493829666833	568.8141988294362	-2.6717557251908395	6.564885496183206	0.6564885496183206	-0.08545727136431784	0.41379310344827586	0.09295352323838081	
1.708950407783784E12	2.010869565217391	-6.489130434782608	3.25	3929.6703296703295	128.0	128.0	10.789900516259733	20.296252405196718	31.08615292145645	480.1508253992588	568.803019976976	-1.7251908396946565	6.793893129770992	0.732824427480916	-0.08545727136431784	0.416791604197901	0.09295352323838081	
1.708950407803316E12	2.032608695652174	-6.467391304347826	3.2391304347826084	3931.135531135531	128.0	128.0	10.789900516259733	20.285001431107695	31.074901947367426	480.1505369127437	568.8198964381095	-1.8473282442748091	7.145038167938931	0.6259541984732824	-0.07496251874062969	0.39430284857571213	0.10344827586206896	
1.7089504078228477E12	2.0217391304347827	-6.434782608695652	3.260869565217391	3931.135531135531	128.0	128.0	10.800646638947326	20.283847485047282	31.084494123994606	480.1518351020617	568.8095109235658	-2.1374045801526718	6.946564885496183	0.8396946564885496	-0.09295352323838081	0.39430284857571213	0.08545727136431784	
1.7089504078423796E12	2.043478260869565	-6.445652173913043	3.3043478260869565	3931.135531135531	128.0	128.0	10.803170895954478	20.271947416299277	31.075118312253753	480.15190722369044	568.8170115729584	-2.4732824427480917	6.870229007633587	0.9312977099236641	-0.08545727136431784	0.41379310344827586	0.095952023988006	
1.7089504078619114E12	2.043478260869565	-6.467391304347826	3.293478260869565	3931.135531135531	128.0	128.0	10.822066762693735	20.27274075421581	31.094807516909544	480.1522678318343	568.8105927479974	-2.946564885496183	6.778625954198473	0.32061068702290074	-0.09895052473763118	0.41529235382308843	0.08395802098950525	
1.708950407881443E12	2.032608695652174	-6.456521739130435	3.25	3907.6923076923076	128.0	128.0	10.806993342279595	20.27100983512519	31.078003177404785	480.1538545076674	568.8041018014076	-2.4885496183206106	6.916030534351145	0.8091603053435115	-0.095952023988006	0.3823088455772114	0.08995502248875561	
1.708950407900975E12	2.043478260869565	-6.456521739130435	3.282608695652174	3932.6007326007325	128.0	128.0	10.813484288869416	20.244901805508356	31.05838609437777	480.15580179164436	568.8113139642852	-1.8931297709923662	7.007633587786259	0.7175572519083969	-0.08545727136431784	0.40629685157421286	0.08545727136431784	
1.7089504079205068E12	2.010869565217391	-6.434782608695652	3.2717391304347827	3932.6007326007325	128.0	128.0	10.819181897542704	20.239636926607723	31.058818824150425	480.15601815653065	568.7950865978106	-2.16793893129771	6.717557251908397	0.5343511450381679	-0.08545727136431784	0.4017991004497751	0.08545727136431784	
1.7089504079400388E12	2.0217391304347827	-6.434782608695652	3.2717391304347827	3931.135531135531	128.0	128.0	10.827908614624574	20.227232006458287	31.05514062108286	480.1573884674774	568.8005678415976	-2.549618320610687	6.961832061068702	0.6259541984732824	-0.09745127436281859	0.40629685157421286	0.10644677661169415	
1.7089504079595706E12	2.0217391304347827	-6.413043478260869	3.2717391304347827	3932.6007326007325	128.0	128.0	10.81925401917148	20.245911508311217	31.065165527482694	480.1589751433105	568.7888841377359	-3.0534351145038165	6.65648854961832	0.6106870229007634	-0.06896551724137931	0.4002998500749625	0.10194902548725637	
1.7089504079791025E12	2.032608695652174	-6.413043478260869	3.2282608695652173	3932.6007326007325	128.0	128.0	10.816657640535551	20.29603604031039	31.11269368084594	480.1609945489162	568.7802295422828	-3.1755725190839694	6.763358778625954	0.7938931297709924	-0.0914542728635682	0.41079460269865065	0.10494752623688156	
1.7089504079986343E12	2.010869565217391	-6.391304347826087	3.293478260869565	3904.7619047619046	128.0	128.0	10.856180293104684	20.327985921858065	31.184166214962747	480.1612109138025	568.755708188499	-3.8931297709923665	6.5038167938931295	0.9770992366412213	-0.08845577211394302	0.4077961019490255	0.0944527736131934	
1.7089504080181663E12	2.032608695652174	-6.434782608695652	3.282608695652174	3931.135531135531	128.0	128.0	10.839375953599925	20.255720049824724	31.095096003424647	480.16438426546864	568.7609730673996	-4.442748091603053	6.473282442748092	0.7786259541984732	-0.08545727136431784	0.3988005997001499	0.09295352323838081	
1.708950408037698E12	2.0217391304347827	-6.445652173913043	3.217391304347826	3907.6923076923076	128.0	128.0	10.81925401917148	20.21641376214192	31.035667781313396	480.16344668429457	568.7455390388417	-4.442748091603053	6.687022900763359	0.9618320610687022	-0.07496251874062969	0.416791604197901	0.09895052473763118	
1.70895040805723E12	2.032608695652174	-6.4021739130434785	3.2282608695652173	3932.6007326007325	128.0	128.0	10.819903113830462	20.192685746274684	31.012588860105144	480.1657545764154	568.7441687278949	-3.5725190839694654	7.358778625954198	0.564885496183206	-0.07496251874062969	0.40629685157421286	0.08845577211394302	
1.7089504080767617E12	2.032608695652174	-6.445652173913043	3.184782608695652	3931.135531135531	128.0	128.0	10.818532802883722	20.178405663777077	30.996938466660797	480.16611518455926	568.7375335380475	-4.030534351145038	6.931297709923664	0.8244274809160305	-0.095952023988006	0.4047976011994003	0.09745127436281859	
1.7089504080962937E12	2.032608695652174	-6.423913043478261	3.2282608695652173	3931.135531135531	128.0	128.0	10.797617530538743	20.168164392490908	30.965781923029652	480.1679182252787	568.7537609045221	-2.931297709923664	6.916030534351145	0.8854961832061068	-0.09745127436281859	0.40629685157421286	0.095952023988006	
1.7089504081158254E12	2.0217391304347827	-6.445652173913043	3.184782608695652	3932.6007326007325	128.0	128.0	10.875869497760474	20.147753971547367	31.02362346930784	480.16625942781684	568.8033805851198	-2.1068702290076335	6.717557251908397	0.8396946564885496	-0.095952023988006	0.4047976011994003	0.08995502248875561	
1.7089504081353572E12	2.043478260869565	-6.413043478260869	3.369565217391304	3931.135531135531	128.0	128.0	10.80418059875734	21.6675730547396	32.47175365349694	480.1695770227405	567.705112422122	-2.015267175572519	6.977099236641221	0.7938931297709924	-0.095952023988006	0.41529235382308843	0.08995502248875561	
1.7089504081548892E12	2.010869565217391	-6.467391304347826	3.2391304347826084	3931.135531135531	128.0	128.0	10.83757291288053	20.433860472900925	31.271433385781457	480.16950490111174	568.3393500255764	-3.480916030534351	6.977099236641221	0.9923664122137404	-0.08545727136431784	0.4017991004497751	0.095952023988006	
1.708950408174421E12	1.967391304347826	-6.25	3.369565217391304	3931.135531135531	128.0	128.0	10.942654126006857	19.958867425783566	30.901521551790424	480.1680624685362	568.8351141017812	-3.633587786259542	4.152671755725191	0.7480916030534351	-0.08845577211394302	0.41079460269865065	0.0944527736131934	
1.708950408193953E12	2.0652173913043477	-6.5	2.7065217391304346	3906.227106227106	128.0	128.0	10.857983333824079	20.120347752612567	30.978331086436643	480.168783684824	568.7750367850109	-6.748091603053435	7.938931297709924	0.5190839694656488	-0.08245877061469264	0.4197901049475262	0.08545727136431784	
1.7089504082134846E12	2.0543478260869565	-6.293478260869565	3.467391304347826	3932.6007326007325	128.0	128.0	10.820552208489444	20.167443176203157	30.9879953846926	480.1705867255434	568.7719355549735	-1.816793893129771	11.297709923664122	0.8244274809160305	-0.08395802098950525	0.41829085457271364	0.10194902548725637	
1.7089504082330166E12	1.9565217391304348	-6.456521739130435	3.2065217391304346	3931.135531135531	128.0	128.0	10.829278925571314	20.19088270555529	31.0201616311266	480.1679182252787	568.7501548230833	-5.603053435114504	6.824427480916031	1.0229007633587786	-0.0914542728635682	0.41079460269865065	0.0944527736131934	
1.7089504082525483E12	2.032608695652174	-6.554347826086956	3.217391304347826	3931.135531135531	128.0	128.0	10.844496589243006	20.197662138660213	31.042158727903217	480.16640367107436	568.7474142011898	-5.770992366412213	5.374045801526718	0.7633587786259541	-0.08995502248875561	0.40929535232383807	0.08845577211394302	
1.7089504082720803E12	2.0217391304347827	-6.434782608695652	3.1630434782608696	3932.6007326007325	128.0	128.0	10.850554806060172	20.22167864104255	31.07223344710272	480.1648891168701	568.7476305660762	-0.6412213740458015	6.061068702290076	0.6870229007633587	-0.08845577211394302	0.41529235382308843	0.08995502248875561	
1.708950408291612E12	2.032608695652174	-6.380434782608695	3.141304347826087	3932.6007326007325	128.0	128.0	10.866493686019622	20.234444169335866	31.100937855355486	480.1651054817564	568.771791311716	-1.099236641221374	6.030534351145038	1.0381679389312977	-0.08995502248875561	0.4017991004497751	0.08545727136431784	
1.708950408311144E12	2.032608695652174	-6.33695652173913	3.152173913043478	3932.6007326007325	128.0	128.0	10.890942918174616	20.314571298905765	31.20551421708038	480.1633745626658	568.7950144761818	-2.931297709923664	6.076335877862595	0.9007633587786259	-0.08095952023988005	0.4077961019490255	0.10194902548725637	
1.7089504083306758E12	2.043478260869565	-6.33695652173913	3.2065217391304346	3931.135531135531	128.0	128.0	10.944817774870131	20.372917696585382	31.317735471455514	480.160417575886	568.8116745724291	-2.931297709923664	6.259541984732824	1.0381679389312977	-0.07796101949025487	0.40929535232383807	0.08845577211394302	
1.7089504083502078E12	2.0652173913043477	-6.3478260869565215	3.25	3907.6923076923076	128.0	128.0	10.979219791796183	20.523219170954132	31.502438962750315	480.1613551570601	568.8124679103456	-3.0534351145038165	6.442748091603053	0.9923664122137404	-0.0704647676161919	0.40629685157421286	0.09295352323838081	
1.7089504083697395E12	2.0652173913043477	-6.423913043478261	3.260869565217391	3906.227106227106	128.0	128.0	10.966382141874092	20.60651965219017	31.57290179406426	480.16085030565864	568.7809507585706	-3.66412213740458	6.290076335877862	0.732824427480916	-0.08095952023988005	0.4047976011994003	0.09745127436281859	
1.7089504083892712E12	2.0652173913043477	-6.478260869565217	3.1956521739130435	3932.6007326007325	128.0	128.0	10.92960011119844	20.550048416858726	31.479648528057165	480.1609945489162	568.726138320701	-4.030534351145038	6.33587786259542	0.7786259541984732	-0.08995502248875561	0.40629685157421286	0.09895052473763118	
1.7089504084088032E12	2.043478260869565	-6.456521739130435	3.260869565217391	3929.6703296703295	128.0	128.0	10.872263416321685	20.413954903358807	31.286218319680493	480.16186000846153	568.6833701948369	-4.137404580152672	6.229007633587786	0.6259541984732824	-0.0914542728635682	0.39280359820089955	0.10194902548725637	
1.708950408428335E12	2.0217391304347827	-6.445652173913043	3.282608695652174	3904.7619047619046	128.0	128.0	10.81377277538452	20.296180283567942	31.10995305895246	480.16229273823416	568.6399529743139	-4.259541984732825	6.442748091603053	0.9770992366412213	-0.08545727136431784	0.4017991004497751	0.095952023988006	
1.708950408447867E12	2.010869565217391	-6.413043478260869	3.2391304347826084	3931.135531135531	128.0	128.0	10.780164096375001	20.190522097411403	30.970686193786406	480.1614994003176	568.631226257232	-4.183206106870228	6.717557251908397	1.3129770992366412	-0.09745127436281859	0.3913043478260869	0.095952023988006	
1.7089504084673987E12	2.0217391304347827	-6.456521739130435	3.0652173913043477	3904.7619047619046	128.0	128.0	10.756219715621437	20.161240716128436	30.917460431749873	480.1614994003176	568.6239419727257	-4.625954198473282	6.6106870229007635	0.7633587786259541	-0.08845577211394302	0.41079460269865065	0.07946026986506746	
1.7089504084869307E12	2.010869565217391	-6.293478260869565	3.5543478260869565	3931.135531135531	128.0	128.0	10.749007552743858	20.146383660600623	30.89539121334448	480.16027333262844	568.6271153243918	-2.2900763358778624	6.625954198473282	1.1755725190839694	-0.08395802098950525	0.4077961019490255	0.09745127436281859	
1.7089504085064624E12	2.0	-6.467391304347826	2.891304347826087	3906.227106227106	128.0	128.0	10.745834201077724	20.139820592382026	30.88565479345975	480.1594799947119	568.631226257232	-5.7251908396946565	6.702290076335878	1.450381679389313	-0.09745127436281859	0.40629685157421286	0.10344827586206896	
1.7089504085259944E12	1.9891304347826086	-6.358695652173913	3.3478260869565215	3932.6007326007325	128.0	128.0	10.753623336985509	20.152009147645135	30.905632484630644	480.1609224272874	568.6263219864753	-3.801526717557252	8.396946564885496	1.099236641221374	-0.09895052473763118	0.4077961019490255	0.08995502248875561	
1.7089504085455261E12	2.043478260869565	-6.456521739130435	3.141304347826087	3931.135531135531	128.0	128.0	10.725063171990296	20.168236514119688	30.893299686109984	480.1586866567954	568.6325965681788	-7.267175572519084	6.99236641221374	1.450381679389313	-0.08545727136431784	0.4017991004497751	0.095952023988006	
1.708950408565058E12	2.0217391304347827	-6.489130434782608	3.2717391304347827	3929.6703296703295	128.0	128.0	10.743309944070571	20.176530501428903	30.919840445499474	480.15933575145436	568.6269710811342	-6.702290076335878	7.8473282442748085	0.7938931297709924	-0.0914542728635682	0.4002998500749625	0.0944527736131934	
1.7089504085845898E12	2.043478260869565	-6.5	3.184782608695652	3931.135531135531	128.0	128.0	10.71987041471844	20.18532934013955	30.90519975485799	480.15904726493926	568.6298559462853	-6.564885496183206	7.587786259541985	0.9770992366412213	-0.07496251874062969	0.39430284857571213	0.08845577211394302	
1.7089504086041218E12	2.032608695652174	-6.456521739130435	3.1630434782608696	3931.135531135531	128.0	128.0	10.742444484525262	20.167082568059275	30.909527052584536	480.1578211972501	568.6178837559085	-5.541984732824427	7.923664122137405	1.0381679389312977	-0.08995502248875561	0.40629685157421286	0.09895052473763118	
1.7089504086236536E12	2.0	-6.423913043478261	3.141304347826087	3929.6703296703295	128.0	128.0	10.733789889072167	20.157634634689646	30.891424523761813	480.157532710735	568.6118255390913	-5.480916030534351	7.83206106870229	1.0534351145038168	-0.0914542728635682	0.4077961019490255	0.09745127436281859	
1.7089504086431855E12	1.9891304347826086	-6.434782608695652	3.141304347826087	3931.135531135531	128.0	128.0	10.72362073941478	20.160591621469454	30.884212360884234	480.15645088630333	568.6064164169331	-5.694656488549618	7.236641221374046	1.0687022900763359	-0.09295352323838081	0.40629685157421286	0.10644677661169415	
1.7089504086627173E12	2.032608695652174	-6.434782608695652	3.152173913043478	3906.227106227106	128.0	128.0	10.697368466540393	20.148547309463897	30.84591577600429	480.1570999809623	568.5971848484498	-5.679389312977099	6.793893129770992	0.9923664122137404	-0.08095952023988005	0.4077961019490255	0.0944527736131934	
1.708950408682249E12	2.043478260869565	-6.456521739130435	3.141304347826087	3931.135531135531	128.0	128.0	10.701984250782044	20.149629133895534	30.851613384677577	480.1581096837652	568.6033873085246	-5.801526717557252	6.854961832061068	0.916030534351145	-0.08395802098950525	0.39280359820089955	0.09745127436281859	
1.708950408701781E12	2.032608695652174	-6.489130434782608	3.1630434782608696	3932.6007326007325	128.0	128.0	10.680564127035634	20.150278228554516	30.83084235559015	480.1581096837652	568.599060010798	-5.175572519083969	7.083969465648854	0.916030534351145	-0.07796101949025487	0.40929535232383807	0.10344827586206896	
1.7089504087213127E12	2.010869565217391	-6.478260869565217	3.141304347826087	3929.6703296703295	128.0	128.0	10.676381072566638	20.153379458591875	30.829760531158513	480.1581096837652	568.5963193889046	-4.748091603053435	7.022900763358779	0.732824427480916	-0.09295352323838081	0.40629685157421286	0.10344827586206896	
1.7089504087408447E12	2.010869565217391	-6.478260869565217	3.0978260869565215	3932.6007326007325	128.0	128.0	10.674217423703364	20.149052160865327	30.823269584568692	480.1565230079321	568.5955981726167	-4.488549618320611	7.0534351145038165	0.8549618320610687	-0.095952023988006	0.4077961019490255	0.10494752623688156	
1.7089504087603765E12	2.0217391304347827	-6.467391304347826	3.1304347826086953	3929.6703296703295	128.0	128.0	10.669024666431508	20.148403066206345	30.817427732637853	480.15746058910617	568.6033873085246	-4.106870229007633	6.244274809160305	0.7633587786259541	-0.08095952023988005	0.41079460269865065	0.10794602698650674	
1.7089504087799084E12	2.0217391304347827	-6.423913043478261	3.141304347826087	3931.135531135531	128.0	128.0	10.662605841470462	20.142272727760403	30.804878569230866	480.15702785933354	568.5968963619348	-4.076335877862595	6.427480916030534	0.42748091603053434	-0.09745127436281859	0.39430284857571213	0.09295352323838081	
1.7089504087994402E12	2.010869565217391	-6.434782608695652	3.1304347826086953	3931.135531135531	128.0	128.0	10.645296650564273	20.15756251306087	30.802859163625143	480.15515269698534	568.59776182148	-3.709923664122137	6.473282442748092	0.732824427480916	-0.08395802098950525	0.4047976011994003	0.0944527736131934	
1.7089504088189722E12	2.010869565217391	-6.456521739130435	3.119565217391304	3906.227106227106	128.0	128.0	10.648470002230408	20.154244918137184	30.802714920367592	480.1545036023264	568.5899005639435	-3.83206106870229	6.671755725190839	0.732824427480916	-0.07796101949025487	0.39430284857571213	0.095952023988006	
1.708950408838504E12	2.010869565217391	-6.456521739130435	3.141304347826087	3932.6007326007325	128.0	128.0	10.65185971878287	20.157850999575974	30.809710718358843	480.1547920888415	568.5869435771637	-3.465648854961832	6.65648854961832	0.38167938931297707	-0.08095952023988005	0.4077961019490255	0.08995502248875561	
1.708950408858036E12	2.0	-6.489130434782608	3.108695652173913	3931.135531135531	128.0	128.0	10.638589339088124	20.161817689158642	30.800407028246767	480.15601815653065	568.5804526305739	-3.450381679389313	6.641221374045801	0.6106870229007634	-0.08845577211394302	0.4077961019490255	0.08395802098950525	
1.7089504088775676E12	2.010869565217391	-6.467391304347826	3.141304347826087	3929.6703296703295	128.0	128.0	10.635127500906886	20.16116859449966	30.796296095406547	480.15486421047024	568.5805968738314	-3.282442748091603	6.763358778625954	0.8549618320610687	-0.10644677661169415	0.4002998500749625	0.09745127436281859	
1.7089504088970996E12	2.0	-6.478260869565217	3.141304347826087	3931.135531135531	128.0	128.0	10.634550527876678	20.161961932416197	30.796512460292874	480.1539987509249	568.572375008151	-3.8931297709923665	6.549618320610687	0.9465648854961831	-0.09895052473763118	0.4002998500749625	0.10194902548725637	
1.7089504089166313E12	2.0217391304347827	-6.478260869565217	3.1630434782608696	3931.135531135531	128.0	128.0	10.628131702915633	20.16448618942335	30.79261789233898	480.15435935906885	568.5833374957249	-3.7251908396946565	6.65648854961832	0.7786259541984732	-0.09745127436281859	0.40629685157421286	0.11394302848575712	
1.708950408936163E12	2.0217391304347827	-6.467391304347826	3.141304347826087	3929.6703296703295	128.0	128.0	10.622289850984794	20.158355850977408	30.7806457019622	480.15551330512926	568.5917757262916	-3.66412213740458	6.641221374045801	0.6259541984732824	-0.08395802098950525	0.39280359820089955	0.10494752623688156	
1.708950408955695E12	2.0217391304347827	-6.434782608695652	3.0760869565217392	3931.135531135531	128.0	128.0	10.634983257649335	20.1533073369631	30.788290594612434	480.1550084537278	568.579442927771	-3.5572519083969465	6.99236641221374	0.7786259541984732	-0.08395802098950525	0.4047976011994003	0.10194902548725637	
1.7089504089752268E12	2.0217391304347827	-6.489130434782608	3.1304347826086953	3904.7619047619046	128.0	128.0	10.627194121741548	20.150999444842277	30.778193566583823	480.15493633209906	568.5844914417853	-2.946564885496183	6.824427480916031	0.5038167938931297	-0.09295352323838081	0.40629685157421286	0.09895052473763118	
1.7089504089947588E12	2.0543478260869565	-6.456521739130435	3.141304347826087	3932.6007326007325	128.0	128.0	10.641618447496707	20.148619431092673	30.79023787858938	480.15407087255375	568.5791544412559	-3.0839694656488548	6.65648854961832	0.8244274809160305	-0.10344827586206896	0.4077961019490255	0.0944527736131934	
1.7089504090142905E12	2.043478260869565	-6.467391304347826	3.108695652173913	3931.135531135531	128.0	128.0	10.623083188901328	20.163043756847834	30.78612694574916	480.15659512956086	568.5803083873163	-3.068702290076336	6.549618320610687	0.7633587786259541	-0.09295352323838081	0.40629685157421286	0.09895052473763118	
1.7089504090338225E12	2.010869565217391	-6.445652173913043	3.1739130434782608	3928.205128205128	128.0	128.0	10.623876526817861	20.216846491914573	30.840723018732433	480.15522481861416	568.5797314142861	-3.0534351145038165	6.870229007633587	0.9312977099236641	-0.09295352323838081	0.39430284857571213	0.095952023988006	
1.7089504090533542E12	2.010869565217391	-6.467391304347826	3.141304347826087	3932.6007326007325	128.0	128.0	10.654672462305125	20.269206794405793	30.92387925671092	480.15616239978823	568.5699949944013	-3.5572519083969465	6.5038167938931295	0.8549618320610687	-0.07796101949025487	0.4017991004497751	0.11394302848575712	
1.7089504090728862E12	2.0217391304347827	-6.434782608695652	3.108695652173913	3931.135531135531	128.0	128.0	10.662173111697808	20.21771195145988	30.879885063157687	480.1547199672127	568.5626385882663	-3.16030534351145	6.427480916030534	0.6259541984732824	-0.08545727136431784	0.4197901049475262	0.10344827586206896	
1.708950409092418E12	2.0217391304347827	-6.434782608695652	3.0543478260869565	3929.6703296703295	128.0	128.0	10.638228730944245	20.195498489796936	30.83372722074118	480.1550084537278	568.5642973857281	-3.0229007633587783	6.366412213740458	0.7633587786259541	-0.07496251874062969	0.4017991004497751	0.09295352323838081	
1.70895040911195E12	2.010869565217391	-6.532608695652174	3.0217391304347827	3931.135531135531	128.0	128.0	10.640680866322622	20.153018850447996	30.793699716770618	480.1566672511897	568.5542724793282	-3.2671755725190836	6.534351145038167	0.6412213740458015	-0.095952023988006	0.39730134932533734	0.10794602698650674	
1.7089504091314817E12	2.043478260869565	-6.456521739130435	2.934782608695652	3907.6923076923076	128.0	128.0	10.634550527876678	20.13744057863243	30.771991106509105	480.15760483236375	568.5594652366001	-1.6946564885496183	6.885496183206107	0.5190839694656488	-0.0914542728635682	0.4047976011994003	0.0944527736131934	
1.7089504091510137E12	2.0217391304347827	-6.510869565217391	3.0217391304347827	3934.065934065934	128.0	128.0	10.636497811853626	20.12741567223259	30.763913484086217	480.15609027815947	568.5840587120126	-1.1908396946564885	6.412213740458015	0.5038167938931297	-0.0914542728635682	0.39280359820089955	0.10194902548725637	
1.7089504091705454E12	2.043478260869565	-6.467391304347826	3.0760869565217392	3932.6007326007325	128.0	128.0	10.657268840941054	20.063948638909892	30.721217479850946	480.15464784558395	568.6442081504117	0.47328244274809156	6.793893129770992	0.7175572519083969	-0.08545727136431784	0.39430284857571213	0.095952023988006	
1.7089504091900771E12	2.0217391304347827	-6.5	3.934782608695652	3928.205128205128	128.0	128.0	10.767614932968014	20.470498260319026	31.23811319328704	480.1553690618717	568.342379133985	1.5114503816793892	6.854961832061068	0.6106870229007634	-0.095952023988006	0.4047976011994003	0.08695652173913043	
1.7089504092096091E12	2.043478260869565	-6.619565217391304	3.2391304347826084	3931.135531135531	128.0	128.0	10.743093579184244	21.03968215461757	31.782775733801813	480.15544118350044	567.7474478182135	-5.358778625954198	6.33587786259542	0.5343511450381679	-0.07796101949025487	0.3988005997001499	0.095952023988006	
1.7089504092291409E12	1.9891304347826086	-6.565217391304348	2.6630434782608696	3932.6007326007325	128.0	128.0	10.706744278281246	19.88241849928123	30.589162777562475	480.1583260486515	568.5335735718696	-0.8091603053435115	6.961832061068702	1.0076335877862594	-0.08095952023988005	0.39280359820089955	0.08695652173913043	
1.7089504092486729E12	2.010869565217391	-6.326086956521739	3.5652173913043477	3931.135531135531	128.0	128.0	10.733862010700943	20.0302678382716	30.764129848972544	480.157532710735	568.6703883016572	2.900763358778626	6.259541984732824	0.2595419847328244	-0.08395802098950525	0.39730134932533734	0.11244377811094453	
1.7089504092682046E12	2.0543478260869565	-6.3478260869565215	2.8369565217391304	3931.135531135531	128.0	128.0	10.710710967863914	20.080248127013224	30.790959094877138	480.1578211972501	568.6657725174156	-5.740458015267175	6.0	0.8091603053435115	-0.08245877061469264	0.40629685157421286	0.10644677661169415	
1.7089504092877366E12	2.0217391304347827	-6.391304347826087	3.1956521739130435	3906.227106227106	128.0	128.0	10.709773386689829	20.10238946704739	30.81216285373722	480.1585424135378	568.6681525311652	-1.3587786259541985	9.618320610687023	0.6259541984732824	-0.08845577211394302	0.41079460269865065	0.10194902548725637	
1.7089504093072683E12	1.9565217391304348	-6.510869565217391	3.184782608695652	3932.6007326007325	128.0	128.0	10.717923130741493	20.09661973674533	30.81454286748682	480.1592636298256	568.6636809901811	-3.0229007633587783	7.129770992366412	1.099236641221374	-0.10644677661169415	0.4077961019490255	0.08995502248875561	
1.7089504093268003E12	2.0760869565217392	-6.532608695652174	3.141304347826087	3931.135531135531	128.0	128.0	10.736746875851974	20.10347129147903	30.840218167331003	480.15818180539395	568.6635367469236	-3.2519083969465647	5.816793893129771	1.0687022900763359	-0.10044977511244378	0.3988005997001499	0.11094452773613193	
1.708950409346332E12	2.0543478260869565	-6.434782608695652	3.2065217391304346	3928.205128205128	128.0	128.0	10.745473592933845	20.13888301120794	30.884356604141786	480.1586866567954	568.6749319642702	1.114503816793893	5.755725190839694	0.9007633587786259	-0.09895052473763118	0.4047976011994003	0.08995502248875561	
1.708950409365864E12	2.043478260869565	-6.423913043478261	3.1304347826086953	3931.135531135531	128.0	128.0	10.760907621491866	20.167226811316823	30.92813443280869	480.15601815653065	568.6793313836255	-0.4427480916030534	5.557251908396946	0.7786259541984732	-0.07496251874062969	0.4017991004497751	0.08845577211394302	
1.7089504093853958E12	2.0760869565217392	-6.380434782608695	3.1739130434782608	3931.135531135531	128.0	128.0	10.816657640535551	20.23559811539628	31.052255755931828	480.15746058910617	568.7152479547558	-1.0076335877862594	6.1679389312977095	1.2061068702290076	-0.0914542728635682	0.39730134932533734	0.08995502248875561	
1.7089504094049277E12	2.0543478260869565	-6.358695652173913	3.217391304347826	3929.6703296703295	128.0	128.0	10.848823886969553	20.33289019261482	31.18171407958437	480.1570999809623	568.7287346993369	-0.42748091603053434	5.908396946564885	0.9465648854961831	-0.08395802098950525	0.41079460269865065	0.08995502248875561	
1.7089504094244595E12	2.043478260869565	-6.380434782608695	3.282608695652174	3931.135531135531	128.0	128.0	10.900751459688124	20.461266691835725	31.36201815152385	480.1586145351666	568.7236861853225	-0.8702290076335878	5.801526717557252	0.8854961832061068	-0.07646176911544228	0.4002998500749625	0.09745127436281859	
1.7089504094439912E12	2.0217391304347827	-6.413043478260869	3.2065217391304346	3907.6923076923076	128.0	128.0	10.87781678173742	20.506486953078145	31.384303734815568	480.15731634584864	568.6759416670731	-0.9465648854961831	6.290076335877862	0.7786259541984732	-0.08995502248875561	0.3988005997001499	0.09295352323838081	
1.7089504094635232E12	2.010869565217391	-6.369565217391304	3.1956521739130435	3932.6007326007325	128.0	128.0	10.838582615683391	20.43054287797724	31.26912549366063	480.15818180539395	568.6071376332209	-1.5877862595419847	6.366412213740458	0.9007633587786259	-0.08995502248875561	0.41379310344827586	0.095952023988006	
1.708950409483055E12	2.0543478260869565	-6.369565217391304	3.119565217391304	3931.135531135531	128.0	128.0	10.75650820213654	20.225428965738892	30.981937167875433	480.1589751433105	568.5498730599729	-1.8015267175572518	6.549618320610687	0.9618320610687022	-0.08245877061469264	0.40629685157421286	0.07796101949025487	
1.708950409502587E12	2.010869565217391	-6.315217391304348	3.043478260869565	3928.205128205128	128.0	128.0	10.711143697636569	20.12691082083116	30.83805451846773	480.16186000846153	568.5254238278179	-1.984732824427481	6.7328244274809155	0.916030534351145	-0.08095952023988005	0.41079460269865065	0.10494752623688156	
1.7089504095221187E12	1.9891304347826086	-6.4021739130434785	3.4239130434782608	3932.6007326007325	128.0	128.0	10.706960643167573	20.03820121743694	30.74516186060451	480.1607781840299	568.5166971107361	-1.8625954198473282	6.946564885496183	1.0381679389312977	-0.08845577211394302	0.4002998500749625	0.0944527736131934	
1.7089504095416506E12	2.0	-6.5	3.032608695652174	3931.135531135531	128.0	128.0	10.672486504612746	20.019016864182575	30.69150336879532	480.1627975896356	568.5071049341088	-6.625954198473282	6.900763358778626	1.099236641221374	-0.08995502248875561	0.38830584707646176	0.08095952023988005	
1.7089504095611824E12	2.0217391304347827	-6.413043478260869	3.217391304347826	3931.135531135531	128.0	128.0	10.68114110006584	20.01295864736541	30.69409974743125	480.16171576520395	568.5156874079332	-3.9541984732824424	7.114503816793893	0.6870229007633587	-0.07796101949025487	0.39430284857571213	0.09295352323838081	
1.7089504095807144E12	1.9891304347826086	-6.380434782608695	3.3369565217391304	3932.6007326007325	128.0	128.0	10.654672462305125	20.01959383721278	30.674266299517907	480.1613551570601	568.5117928399793	-6.8396946564885495	6.458015267175572	1.2671755725190839	-0.09295352323838081	0.4017991004497751	0.09895052473763118	
1.708950409600246E12	2.010869565217391	-6.5	3.0217391304347827	3906.227106227106	128.0	128.0	10.660874922379843	20.022767188878916	30.68364211125876	480.16301395452194	568.5062394745636	-7.007633587786259	6.977099236641221	1.0076335877862594	-0.06746626686656672	0.4017991004497751	0.095952023988006	
1.708950409619778E12	2.0217391304347827	-6.489130434782608	3.282608695652174	3932.6007326007325	128.0	128.0	10.669890125976817	20.037047271376522	30.70693739735334	480.1612109138025	568.5032824877837	-4.427480916030534	7.450381679389313	0.7786259541984732	-0.08545727136431784	0.41379310344827586	0.11094452773613193	
1.7089504096393098E12	2.0543478260869565	-6.521739130434782	3.1630434782608696	3932.6007326007325	128.0	128.0	10.663976152417202	20.052625543192093	30.716601695609295	480.1623648598629	568.5046527987305	-4.702290076335878	7.007633587786259	0.6870229007633587	-0.07496251874062969	0.38830584707646176	0.09895052473763118	
1.7089504096588418E12	2.0543478260869565	-6.467391304347826	3.1956521739130435	3928.205128205128	128.0	128.0	10.64688332639734	20.059404976297017	30.706288302694357	480.1629418328931	568.4861896617639	-3.6030534351145036	7.49618320610687	0.6259541984732824	-0.08245877061469264	0.3913043478260869	0.10344827586206896	
1.7089504096783735E12	2.032608695652174	-6.423913043478261	3.1630434782608696	3932.6007326007325	128.0	128.0	10.66109128726617	20.047144299405133	30.708235586671304	480.1598406028558	568.4797708368029	-3.3435114503816794	7.450381679389313	0.5190839694656488	-0.0914542728635682	0.4047976011994003	0.08995502248875561	
1.7089504096979055E12	2.0543478260869565	-6.391304347826087	3.152173913043478	3931.135531135531	128.0	128.0	10.641762690754259	20.039787893270002	30.68155058402426	480.1604896975148	568.4812853910072	-3.7709923664122136	7.236641221374046	0.6564885496183206	-0.08995502248875561	0.40929535232383807	0.08845577211394302	
1.7089504097174373E12	2.0217391304347827	-6.391304347826087	3.119565217391304	3929.6703296703295	128.0	128.0	10.642700271928344	20.0326478520212	30.675348123949544	480.159768481227	568.4680150113124	-4.137404580152672	6.854961832061068	0.8549618320610687	-0.08845577211394302	0.41079460269865065	0.10194902548725637	
1.708950409736969E12	2.043478260869565	-6.434782608695652	3.1956521739130435	3931.135531135531	128.0	128.0	10.62423713496174	20.03351331156651	30.65775044652825	480.1588309000529	568.4636155919571	-4.65648854961832	6.7328244274809155	1.0076335877862594	-0.08245877061469264	0.3988005997001499	0.095952023988006	
1.708950409756501E12	2.043478260869565	-6.510869565217391	3.1956521739130435	3907.6923076923076	128.0	128.0	10.619477107462538	20.03214300061977	30.65162010808231	480.1609224272874	568.468447741085	-5.374045801526718	6.946564885496183	0.6412213740458015	-0.0914542728635682	0.4077961019490255	0.07946026986506746	
1.7089504097760327E12	2.032608695652174	-6.5	3.184782608695652	3932.6007326007325	128.0	128.0	10.618395283030901	20.022045972591158	30.64044125562206	480.16085030565864	568.4582064697989	-4.488549618320611	6.702290076335878	0.6564885496183206	-0.095952023988006	0.39730134932533734	0.09745127436281859	
1.7089504097955647E12	2.043478260869565	-6.510869565217391	3.119565217391304	3931.135531135531	128.0	128.0	10.629862622006252	20.009064079411516	30.63892670141777	480.1614994003176	568.4616683079802	-3.4351145038167936	6.687022900763359	0.48854961832061067	-0.0914542728635682	0.4002998500749625	0.10494752623688156	
1.7089504098150964E12	2.032608695652174	-6.489130434782608	3.108695652173913	3926.7399267399264	128.0	128.0	10.606495214282896	20.00250101119292	30.608996225475817	480.16085030565864	568.4593604158594	-2.519083969465649	6.6106870229007635	0.4580152671755725	-0.095952023988006	0.4077961019490255	0.10494752623688156	
1.7089504098346284E12	2.032608695652174	-6.391304347826087	3.217391304347826	3931.135531135531	128.0	128.0	10.625318959393377	19.99427914551248	30.619598104905858	480.16409577895354	568.4665004571082	-1.816793893129771	6.687022900763359	0.21374045801526717	-0.07796101949025487	0.3988005997001499	0.08845577211394302	
1.7089504098541602E12	2.0543478260869565	-6.391304347826087	3.184782608695652	3931.135531135531	128.0	128.0	10.613851620418027	19.982667563279577	30.596519183697605	480.16445638709746	568.4600816321471	-2.6717557251908395	6.625954198473282	0.7175572519083969	-0.08095952023988005	0.4002998500749625	0.10494752623688156	
1.7089504098736921E12	2.0217391304347827	-6.391304347826087	3.25	3931.135531135531	128.0	128.0	10.60454793030595	19.99218761827798	30.596735548583933	480.16496123849885	568.4560428209356	-2.427480916030534	6.519083969465648	0.7480916030534351	-0.08995502248875561	0.3988005997001499	0.08845577211394302	
1.7089504098932239E12	2.032608695652174	-6.434782608695652	3.141304347826087	3931.135531135531	128.0	128.0	10.61240918784251	19.984037874226317	30.59644706206883	480.16351880592333	568.4450082117329	-3.3587786259541983	6.65648854961832	0.8396946564885496	-0.08545727136431784	0.40629685157421286	0.10344827586206896	
1.7089504099127559E12	2.032608695652174	-6.434782608695652	3.1630434782608696	3906.227106227106	128.0	128.0	10.5999321460643	19.983388779567335	30.583320925631636	480.1654660899003	568.4300069129475	-3.2061068702290076	6.702290076335878	1.0687022900763359	-0.08095952023988005	0.4002998500749625	0.08695652173913043	
1.7089504099322876E12	2.0217391304347827	-6.445652173913043	3.2065217391304346	3932.6007326007325	128.0	128.0	10.606639457540448	19.98310029305223	30.58973975059268	480.1640236573248	568.414428641132	-3.32824427480916	6.488549618320611	1.099236641221374	-0.07796101949025487	0.41379310344827586	0.08845577211394302	
1.7089504099518196E12	2.032608695652174	-6.423913043478261	3.152173913043478	3932.6007326007325	128.0	128.0	10.592431496671617	19.987788198922658	30.580219695594277	480.1661873061881	568.4244535475318	-3.709923664122137	6.717557251908397	0.8244274809160305	-0.11094452773613193	0.4047976011994003	0.10194902548725637	
1.7089504099713513E12	2.0217391304347827	-6.4021739130434785	3.1739130434782608	3925.274725274725	128.0	128.0	10.593152712959375	19.980864522560182	30.57401723551956	480.16474487361256	568.4274826559404	-3.969465648854962	6.549618320610687	0.7633587786259541	-0.08245877061469264	0.40929535232383807	0.09295352323838081	
1.708950409990883E12	2.010869565217391	-6.478260869565217	3.1304347826086953	3904.7619047619046	128.0	128.0	10.60317761935921	19.982162711878146	30.585340331237358	480.16387941406725	568.4245977907893	-3.7862595419847325	6.412213740458015	0.4580152671755725	-0.08545727136431784	0.40929535232383807	0.08095952023988005	
1.708950410010415E12	2.010869565217391	-6.456521739130435	3.2065217391304346	3932.6007326007325	128.0	128.0	10.576348373454616	19.986417887975918	30.562766261430536	480.1636630491809	568.4201262498053	-2.3053435114503817	6.5038167938931295	0.5801526717557252	-0.07496251874062969	0.4017991004497751	0.09895052473763118	
1.7089504100299468E12	2.043478260869565	-6.423913043478261	3.184782608695652	3931.135531135531	128.0	128.0	10.581613252355249	19.98346090119611	30.56507415355136	480.1623648598629	568.4181068441995	-2.748091603053435	6.717557251908397	0.6564885496183206	-0.07346326836581708	0.4002998500749625	0.08395802098950525	
1.7089504100494788E12	2.0652173913043477	-6.489130434782608	3.141304347826087	3932.6007326007325	128.0	128.0	10.571083494553983	19.98757183403633	30.558655328590316	480.16387941406725	568.4091637622314	-3.2519083969465647	6.412213740458015	0.6564885496183206	-0.0914542728635682	0.39730134932533734	0.08695652173913043	
1.7089504100690105E12	2.0543478260869565	-6.5	3.119565217391304	3909.1575091575087	128.0	128.0	10.5749059408791	20.05543828671435	30.63034422759345	480.1630860761507	568.4017352344674	-2.229007633587786	6.717557251908397	0.7786259541984732	-0.07646176911544228	0.4077961019490255	0.08695652173913043	
1.7089504100885425E12	2.032608695652174	-6.434782608695652	3.141304347826087	3932.6007326007325	128.0	128.0	10.58586842845302	20.111837400417016	30.69770582887004	480.16351880592333	568.3967588420819	-2.0610687022900764	6.671755725190839	0.7480916030534351	-0.0914542728635682	0.4077961019490255	0.08995502248875561	
1.7089504101080742E12	2.0543478260869565	-6.423913043478261	3.2065217391304346	3931.135531135531	128.0	128.0	10.596181821367958	20.071737774817677	30.667919596185637	480.1627975896356	568.3938018553022	-2.183206106870229	6.641221374045801	0.8854961832061068	-0.08395802098950525	0.39730134932533734	0.09745127436281859	
1.7089504101276062E12	2.0217391304347827	-6.445652173913043	3.217391304347826	3923.8095238095234	128.0	128.0	10.557524628344135	20.035749082058558	30.593273710402695	480.16229273823416	568.3926479092418	-3.5572519083969465	6.305343511450381	0.5801526717557252	-0.08395802098950525	0.4002998500749625	0.08995502248875561	
1.708950410147138E12	1.9891304347826086	-6.434782608695652	3.1739130434782608	3931.135531135531	128.0	128.0	10.55161065478452	20.003077984223125	30.554688639007647	480.1622206166054	568.3617077304968	-3.480916030534351	6.2748091603053435	0.5343511450381679	-0.09295352323838081	0.40629685157421286	0.08845577211394302	
1.70895041016667E12	2.0543478260869565	-6.467391304347826	3.119565217391304	3931.135531135531	128.0	128.0	10.550384587095332	19.990961550588793	30.541346137684126	480.16027333262844	568.3539907162179	-2.7938931297709924	6.687022900763359	0.3969465648854962	-0.08545727136431784	0.41379310344827586	0.10644677661169415	
1.7089504101862017E12	2.032608695652174	-6.456521739130435	3.119565217391304	3929.6703296703295	128.0	128.0	10.535094801794864	19.984109995855093	30.51920479764996	480.16200425171905	568.3759878129945	-2.9770992366412212	6.671755725190839	0.5801526717557252	-0.10044977511244378	0.424287856071964	0.095952023988006	
1.7089504102057336E12	2.0760869565217392	-6.4021739130434785	3.141304347826087	3929.6703296703295	128.0	128.0	10.58449811750628	19.918623556926676	30.503121674432958	480.1613551570601	568.4498403608609	-2.5801526717557253	6.717557251908397	0.6259541984732824	-0.08395802098950525	0.4077961019490255	0.10194902548725637	
1.7089504102252654E12	2.032608695652174	-6.3478260869565215	3.2065217391304346	3906.227106227106	128.0	128.0	10.643709974731205	20.449222379830168	31.092932354561373	480.1603454542572	568.0682448230082	-3.4351145038167936	6.213740458015267	0.8396946564885496	-0.06896551724137931	0.38980509745127434	0.08695652173913043	
1.708950410244797E12	2.0869565217391304	-6.391304347826087	3.0869565217391304	3931.135531135531	128.0	128.0	10.58211810375668	20.88837097744596	31.47048908120264	480.1573884674774	567.6489296733057	-3.465648854961832	6.366412213740458	0.549618320610687	-0.07496251874062969	0.40629685157421286	0.095952023988006	
1.708950410264329E12	2.0217391304347827	-6.33695652173913	2.4891304347826084	3931.135531135531	128.0	128.0	10.607000065684327	19.773009988428356	30.38001005411268	480.15609027815947	568.3958212609078	-3.9236641221374042	7.206106870229007	0.7633587786259541	-0.08995502248875561	0.40929535232383807	0.095952023988006	
1.7089504102838608E12	1.967391304347826	-6.489130434782608	3.7391304347826084	3923.8095238095234	128.0	128.0	10.615077688107215	19.94747220843699	30.56254989654421	480.1550805753566	568.4998927712313	0.366412213740458	4.778625954198473	0.32061068702290074	-0.10344827586206896	0.39730134932533734	0.08995502248875561	
1.7089504103033928E12	2.0760869565217392	-6.4021739130434785	2.902173913043478	3931.135531135531	128.0	128.0	10.584353874248729	19.99954402441311	30.583897898661842	480.15428723744003	568.4876320943395	-8.854961832061068	7.801526717557252	0.3511450381679389	-0.08095952023988005	0.39730134932533734	0.08995502248875561	
1.7089504103229246E12	2.010869565217391	-6.434782608695652	3.1304347826086953	3931.135531135531	128.0	128.0	10.57303077853093	20.03589332531611	30.60892410384704	480.1523399534631	568.4910218108919	-6.290076335877862	7.603053435114504	1.2061068702290076	-0.08845577211394302	0.4047976011994003	0.09745127436281859	
1.7089504103424565E12	1.967391304347826	-6.478260869565217	3.391304347826087	3929.6703296703295	128.0	128.0	10.562140412585785	20.062578327963152	30.62471874054894	480.15068115600127	568.4834490398704	-5.83206106870229	6.625954198473282	1.099236641221374	-0.095952023988006	0.41079460269865065	0.0944527736131934	
1.7089504103619883E12	2.119565217391304	-6.521739130434782	3.0869565217391304	3932.6007326007325	128.0	128.0	10.574473211106445	20.084575424739768	30.659048635846215	480.1488781152819	568.4806362963482	0.7022900763358778	7.404580152671755	1.5725190839694656	-0.08395802098950525	0.4002998500749625	0.0944527736131934	
1.7089504103815203E12	2.0978260869565215	-6.423913043478261	3.1739130434782608	3907.6923076923076	128.0	128.0	10.56394345330518	20.127271428975035	30.691214882280217	480.1483011422517	568.5056625015334	-1.4351145038167938	7.633587786259541	1.7557251908396947	-0.10044977511244378	0.4017991004497751	0.09295352323838081	
1.708950410401052E12	2.0543478260869565	-6.434782608695652	3.1630434782608696	3932.6007326007325	128.0	128.0	10.60094184886716	20.160663743098233	30.76160559196539	480.1460653717596	568.5202310705461	-2.5801526717557253	7.343511450381679	1.9236641221374045	-0.09295352323838081	0.40629685157421286	0.08845577211394302	
1.708950410420584E12	2.032608695652174	-6.413043478260869	3.1630434782608696	3931.135531135531	128.0	128.0	10.614933444849664	20.265312226451904	30.880245671301566	480.1424592903208	568.5772792789078	-3.2213740458015265	6.671755725190839	1.465648854961832	-0.08095952023988005	0.4077961019490255	0.08695652173913043	
1.7089504104401157E12	2.032608695652174	-6.434782608695652	3.1956521739130435	3925.274725274725	128.0	128.0	10.652292448555524	20.357916397800018	31.010208846355543	480.13957442516977	568.5988436459116	-2.427480916030534	5.969465648854961	1.0687022900763359	-0.09895052473763118	0.41079460269865065	0.10194902548725637	
1.7089504104596477E12	2.0543478260869565	-6.456521739130435	3.2391304347826084	3932.6007326007325	128.0	128.0	10.680059275634203	20.499419033458118	31.17947830909232	480.1371222897914	568.5956702942456	-2.4427480916030535	6.458015267175572	0.8091603053435115	-0.08245877061469264	0.416791604197901	0.09295352323838081	
1.7089504104791794E12	2.0652173913043477	-6.478260869565217	3.2282608695652173	3931.135531135531	128.0	128.0	10.674433788589692	20.533171955725187	31.20760574431488	480.1371944114202	568.547276681337	-2.2442748091603053	6.366412213740458	0.8091603053435115	-0.09745127436281859	0.416791604197901	0.08545727136431784	
