"sep=	"
Shimmer_6D72_TimestampSync_Unix_CAL	Shimmer_6D72_Accel_LN_X_CAL	Shimmer_6D72_Accel_LN_Y_CAL	Shimmer_6D72_Accel_LN_Z_CAL	Shimmer_6D72_Battery_CAL	Shimmer_6D72_ECG_EMG_Status1_CAL	Shimmer_6D72_ECG_EMG_Status2_CAL	Shimmer_6D72_ECG_LA-RA_24BIT_CAL	Shimmer_6D72_ECG_LL-LA_24BIT_CAL	Shimmer_6D72_ECG_LL-RA_24BIT_CAL	Shimmer_6D72_ECG_RESP_24BIT_CAL	Shimmer_6D72_ECG_Vx-RL_24BIT_CAL	Shimmer_6D72_Gyro_X_CAL	Shimmer_6D72_Gyro_Y_CAL	Shimmer_6D72_Gyro_Z_CAL	Shimmer_6D72_Mag_X_CAL	Shimmer_6D72_Mag_Y_CAL	Shimmer_6D72_Mag_Z_CAL	
ms	m/(s^2)	m/(s^2)	m/(s^2)	mV	no_units	no_units	mV	mV	mV	mV	mV	deg/s	deg/s	deg/s	local_flux	local_flux	local_flux	
1.7089507219132852E12	2.2065217391304346	-6.543478260869565	2.543478260869565	3928.205128205128	128.0	128.0	7.128429666570386	22.03236425308755	29.160793919657937	479.24093893062343	573.4298388278293	-14.030534351145038	5.9541984732824424	2.091603053435114	-0.08395802098950525	0.39280359820089955	0.10194902548725637	
1.7089507219328167E12	2.3260869565217392	-6.543478260869565	2.5760869565217392	3903.296703296703	128.0	128.0	7.140762465091046	22.034311537064497	29.175074002155544	479.24339106600183	573.4418831398348	-10.900763358778626	5.221374045801526	1.7099236641221374	-0.0914542728635682	0.4047976011994003	0.11244377811094453	
1.7089507219523481E12	2.282608695652174	-6.543478260869565	2.619565217391304	3928.205128205128	128.0	128.0	7.165572305389918	22.08465243395	29.25022473933992	479.2437516741457	573.4796748733133	-11.068702290076336	5.6183206106870225	1.6946564885496183	-0.08545727136431784	0.3913043478260869	0.10644677661169415	
1.7089507219718796E12	2.2717391304347827	-6.510869565217391	2.5543478260869565	3928.205128205128	128.0	128.0	7.1896609294010325	22.128935114018336	29.31859604341937	479.24440076880467	573.518404187966	-10.839694656488549	6.671755725190839	1.8473282442748091	-0.09745127436281859	0.39430284857571213	0.095952023988006	
1.7089507219914111E12	2.282608695652174	-6.5	2.5217391304347827	3928.205128205128	128.0	128.0	7.237621812536933	22.229328421274236	29.46695023381117	479.2458432013802	573.572423287919	-7.694656488549618	6.2748091603053435	1.9389312977099236	-0.10344827586206896	0.38980509745127434	0.11244377811094453	
1.7089507220109426E12	2.2717391304347827	-6.434782608695652	2.4456521739130435	3929.6703296703295	128.0	128.0	7.258392841624361	22.32900051224238	29.58739335386674	479.2440401606608	573.5716299500025	-5.312977099236641	5.893129770992366	1.5267175572519083	-0.095952023988006	0.39280359820089955	0.10194902548725637	
1.708950722030474E12	2.2282608695652173	-6.434782608695652	2.4891304347826084	3928.205128205128	128.0	128.0	7.273898991811156	22.409271885069835	29.68317087688099	479.24591532300894	573.5212169314882	-4.900763358778626	6.106870229007633	1.5572519083969465	-0.10344827586206896	0.39730134932533734	0.10194902548725637	
1.7089507220500056E12	2.25	-6.456521739130435	2.4347826086956523	3928.205128205128	128.0	128.0	7.213821675040922	22.360229177502298	29.57405085254322	479.248151093501	573.4309206522609	-3.633587786259542	6.305343511450381	1.2213740458015268	-0.08545727136431784	0.3988005997001499	0.11394302848575712	
1.708950722069537E12	2.217391304347826	-6.5	2.4456521739130435	3928.205128205128	128.0	128.0	7.1585043857698905	22.25240734248249	29.41091172825238	479.248151093501	573.366227551249	-3.0381679389312977	6.305343511450381	1.099236641221374	-0.09295352323838081	0.39430284857571213	0.095952023988006	
1.7089507220890686E12	2.25	-6.478260869565217	2.510869565217391	3903.296703296703	128.0	128.0	7.099076163658639	22.084508190692446	29.183584354351087	479.2503147423643	573.3381722376553	-1.8473282442748091	6.412213740458015	1.0381679389312977	-0.08995502248875561	0.4017991004497751	0.10644677661169415	
1.7089507221086E12	2.260869565217391	-6.510869565217391	2.5760869565217392	3928.205128205128	128.0	128.0	7.080973634835916	22.042244916229834	29.12321855106575	479.2517571749398	573.3300946152324	-3.480916030534351	5.9541984732824424	0.916030534351145	-0.08845577211394302	0.39280359820089955	0.10194902548725637	
1.7089507221281318E12	2.2282608695652173	-6.554347826086956	2.4456521739130435	3928.205128205128	128.0	128.0	7.068280228171377	22.013324143090742	29.08160437126212	479.2532717291441	573.3401195216322	-3.1908396946564883	6.3969465648854955	1.297709923664122	-0.08245877061469264	0.38830584707646176	0.11394302848575712	
1.7089507221476633E12	2.1956521739130435	-6.467391304347826	2.8369565217391304	3926.7399267399264	128.0	128.0	7.06034684900604	21.99536585752557	29.05571270653161	479.2552911347498	573.3434371165558	-0.916030534351145	8.442748091603054	1.3282442748091603	-0.09745127436281859	0.3913043478260869	0.095952023988006	
1.7089507221671948E12	2.2065217391304346	-6.478260869565217	2.4130434782608696	3928.205128205128	128.0	128.0	7.06770325514117	21.98562943764084	29.05333269278201	479.25615659429513	573.3500723064033	-4.641221374045801	5.984732824427481	1.1450381679389312	-0.09745127436281859	0.3913043478260869	0.10644677661169415	
1.7089507221867263E12	2.1630434782608696	-6.456521739130435	2.717391304347826	3926.7399267399264	128.0	128.0	7.068352349800152	21.990822194912695	29.05917454471285	479.2580317566433	573.3499280631457	-3.6488549618320607	7.648854961832061	1.099236641221374	-0.08395802098950525	0.38980509745127434	0.10194902548725637	
1.7089507222062578E12	2.2391304347826084	-6.489130434782608	2.4239130434782608	3926.7399267399264	128.0	128.0	7.055370456620509	21.99579858729823	29.051169043918737	479.2585366080447	573.3618281318937	-3.969465648854962	7.145038167938931	1.5267175572519083	-0.08395802098950525	0.39280359820089955	0.11544227886056971	
1.7089507222257893E12	2.1739130434782608	-6.445652173913043	2.630434782608696	3928.205128205128	128.0	128.0	7.068929322830359	21.99572646566945	29.06465578849981	479.2601232838778	573.3538947527284	-3.9847328244274807	8.030534351145038	1.099236641221374	-0.09745127436281859	0.38830584707646176	0.10344827586206896	
1.7089507222453208E12	2.2065217391304346	-6.478260869565217	2.5869565217391304	3903.296703296703	128.0	128.0	7.064602025103811	21.985990045784717	29.05059207088853	479.26026752713534	573.3599529695455	-4.030534351145038	8.091603053435113	1.4045801526717556	-0.095952023988006	0.4047976011994003	0.0944527736131934	
1.7089507222648523E12	2.2282608695652173	-6.445652173913043	2.5543478260869565	3928.205128205128	128.0	128.0	7.056596524309698	21.992408870745766	29.049005395055463	479.26127722993823	573.3552650636751	-3.633587786259542	7.679389312977099	1.816793893129771	-0.09745127436281859	0.3913043478260869	0.09895052473763118	
1.7089507222843838E12	2.1956521739130435	-6.4021739130434785	2.5543478260869565	3928.205128205128	128.0	128.0	7.061284430180125	21.964137192265653	29.02542162244578	479.2623590543698	573.353678387842	-4.65648854961832	7.557251908396946	1.648854961832061	-0.08845577211394302	0.39730134932533734	0.09745127436281859	
1.7089507223039153E12	2.217391304347826	-6.358695652173913	2.5217391304347827	3926.7399267399264	128.0	128.0	7.053062564499684	21.964642043667087	29.01770460816677	479.26257541925617	573.3437977246997	-4.2748091603053435	7.908396946564885	1.6793893129770991	-0.0914542728635682	0.39730134932533734	0.10494752623688156	
1.7089507223234468E12	2.260869565217391	-6.369565217391304	2.5217391304347827	3928.205128205128	128.0	128.0	7.050466185863756	21.954545015638477	29.00501120150223	479.2639457302029	573.357861442311	-4.748091603053435	7.32824427480916	1.4045801526717556	-0.07796101949025487	0.3988005997001499	0.10344827586206896	
1.7089507223429783E12	2.2282608695652173	-6.391304347826087	2.4782608695652173	3928.205128205128	128.0	128.0	7.04902375328824	21.946539514844364	28.995563268132603	479.26683059535395	573.3481250224263	-5.251908396946565	7.572519083969465	1.465648854961832	-0.08845577211394302	0.38980509745127434	0.09745127436281859	
1.7089507223625098E12	2.217391304347826	-6.358695652173913	2.358695652173913	3926.7399267399264	128.0	128.0	7.032796386813687	21.961108083857074	28.99390447067076	479.26711908186905	573.3462498600782	-4.015267175572519	7.206106870229007	0.7938931297709924	-0.08845577211394302	0.38530734632683655	0.10194902548725637	
1.7089507223820413E12	2.2282608695652173	-6.380434782608695	2.2717391304347827	3928.205128205128	128.0	128.0	7.030704859579189	21.97077238211303	29.001477241692218	479.2664699872101	573.3384607241703	-2.610687022900763	7.49618320610687	0.8244274809160305	-0.08245877061469264	0.38830584707646176	0.11394302848575712	
1.7089507224015728E12	2.1956521739130435	-6.445652173913043	2.3478260869565215	3903.296703296703	128.0	128.0	7.017001750111789	21.96889721976486	28.985898969876647	479.2670469602403	573.3452401572753	-2.259541984732824	7.2824427480916025	0.8396946564885496	-0.0914542728635682	0.39280359820089955	0.10494752623688156	
1.7089507224211045E12	2.1956521739130435	-6.434782608695652	2.467391304347826	3929.6703296703295	128.0	128.0	7.019093277346287	21.979787585710003	28.99888086305629	479.26769605489926	573.3326188722396	-5.2824427480916025	6.885496183206107	0.5801526717557252	-0.10344827586206896	0.38980509745127434	0.11544227886056971	
1.708950722440636E12	2.217391304347826	-6.478260869565217	2.4347826086956523	3929.6703296703295	128.0	128.0	7.012890817271569	21.971998449802218	28.984889267073786	479.2664699872101	573.3407686162911	-5.847328244274809	7.038167938931298	0.6870229007633587	-0.0914542728635682	0.39280359820089955	0.10194902548725637	
1.7089507224601675E12	2.2282608695652173	-6.489130434782608	2.4347826086956523	3928.205128205128	128.0	128.0	7.007481695113385	21.9547613805248	28.962243075638185	479.2663257439525	573.3460334951918	-4.778625954198473	6.6106870229007635	0.732824427480916	-0.0914542728635682	0.38980509745127434	0.10494752623688156	
1.708950722479699E12	2.217391304347826	-6.521739130434782	2.4782608695652173	3901.8315018315016	128.0	128.0	7.005390167878887	21.95973777291033	28.965127940789216	479.26473906811947	573.3326188722396	-4.763358778625954	6.748091603053435	0.5801526717557252	-0.06896551724137931	0.38530734632683655	0.10194902548725637	
1.7089507224992305E12	2.217391304347826	-6.521739130434782	2.4891304347826084	3928.205128205128	128.0	128.0	7.006183505795421	21.951083177457235	28.957266683252655	479.26408997346044	573.336008588792	-4.152671755725191	6.641221374045801	0.4427480916030534	-0.08545727136431784	0.37631184407796103	0.10644677661169415	
1.708950722518762E12	2.2282608695652173	-6.478260869565217	2.532608695652174	3900.3663003663	128.0	128.0	6.993778585645984	21.951732272116217	28.9455108577622	479.2633687571727	573.3383886025416	-3.6030534351145036	6.213740458015267	0.3969465648854962	-0.0914542728635682	0.39280359820089955	0.10794602698650674	
1.7089507225382935E12	2.2282608695652173	-6.5	2.5	3926.7399267399264	128.0	128.0	6.989018558146782	21.95562684007011	28.944645398216892	479.2616378380821	573.3329073587546	-3.7251908396946565	5.984732824427481	-0.12213740458015267	-0.09745127436281859	0.40629685157421286	0.10344827586206896	
1.708950722557825E12	2.2282608695652173	-6.521739130434782	2.510869565217391	3903.296703296703	128.0	128.0	6.9966634507970165	21.953102583062957	28.949766033859973	479.26214268948354	573.3358643455344	-3.16030534351145	5.587786259541985	0.030534351145038167	-0.08545727136431784	0.37631184407796103	0.095952023988006	
1.7089507225773564E12	2.217391304347826	-6.510869565217391	2.5	3928.205128205128	128.0	128.0	6.989090679775558	22.001351952713964	28.990442632489522	479.26380148694534	573.3372346564812	-2.427480916030534	5.755725190839694	-0.10687022900763359	-0.09295352323838081	0.39430284857571213	0.11394302848575712	
1.708950722596888E12	2.2391304347826084	-6.478260869565217	2.510869565217391	3926.7399267399264	128.0	128.0	7.01527083102117	22.073112973345875	29.088383804367044	479.2607723785368	573.3238921551576	-1.083969465648855	5.587786259541985	0.0	-0.09295352323838081	0.3913043478260869	0.11094452773613193	
1.7089507226164194E12	2.2065217391304346	-6.445652173913043	2.532608695652174	3925.274725274725	128.0	128.0	7.000918626894788	22.041956429714734	29.04287505660952	479.2607723785368	573.312208451296	-1.0687022900763359	5.786259541984733	-0.3053435114503817	-0.07496251874062969	0.3913043478260869	0.10644677661169415	
1.708950722635951E12	2.2065217391304346	-6.478260869565217	2.532608695652174	3928.205128205128	128.0	128.0	6.950433486751734	21.989956735367386	28.94039022211912	479.25969055410513	573.3239642767865	-1.7404580152671756	5.786259541984733	0.04580152671755725	-0.07496251874062969	0.38830584707646176	0.10344827586206896	
1.7089507226554824E12	2.2717391304347827	-6.5	2.4130434782608696	3926.7399267399264	128.0	128.0	6.956347460311349	21.957934732190935	28.914282192502284	479.25745478361307	573.3228824523547	-2.16793893129771	6.442748091603053	0.04580152671755725	-0.10044977511244378	0.38830584707646176	0.11094452773613193	
1.708950722675014E12	2.2717391304347827	-6.467391304347826	2.467391304347826	3900.3663003663	128.0	128.0	6.954400176334403	21.93132185117267	28.88572202750707	479.2581038782721	573.3333400885273	-2.8244274809160306	6.625954198473282	0.15267175572519084	-0.08545727136431784	0.38080959520239877	0.10344827586206896	
1.7089507226945457E12	2.260869565217391	-6.5	2.532608695652174	3926.7399267399264	128.0	128.0	6.951515311183371	21.932908527005736	28.884423838189107	479.25716629709797	573.32728187171	-2.351145038167939	7.221374045801526	0.2900763358778626	-0.095952023988006	0.4002998500749625	0.10794602698650674	
1.7089507227140771E12	2.2717391304347827	-6.5	2.510869565217391	3901.8315018315016	128.0	128.0	7.028685453973467	21.875716075386535	28.90440152936	479.25644508081024	573.4208957458611	-1.0229007633587786	6.366412213740458	-0.061068702290076333	-0.095952023988006	0.39730134932533734	0.10194902548725637	
1.7089507227336086E12	2.282608695652174	-6.5	2.532608695652174	3928.205128205128	128.0	128.0	6.974233624247745	23.048269516023343	30.022503140271088	479.2535602156592	572.6088783274745	-0.4580152671755725	6.412213740458015	0.6259541984732824	-0.09745127436281859	0.3988005997001499	0.1169415292353823	
1.7089507227531401E12	2.282608695652174	-6.510869565217391	2.5869565217391304	3928.205128205128	128.0	128.0	7.001134991781115	22.93107186926268	29.932206861043795	479.2535602156592	572.9736695258224	-0.4427480916030534	7.206106870229007	0.7786259541984732	-0.08995502248875561	0.39430284857571213	0.11394302848575712	
1.7089507227726716E12	2.2282608695652173	-6.58695652173913	2.108695652173913	3925.274725274725	128.0	128.0	7.0827045539265345	21.705653274733223	28.788357828659755	479.2531274858865	573.4323630848364	-1.648854961832061	6.564885496183206	0.42748091603053434	-0.0914542728635682	0.4077961019490255	0.1199400299850075	
1.7089507227922031E12	2.152173913043478	-6.304347826086956	3.282608695652174	3928.205128205128	128.0	128.0	7.02760362954183	21.874201521182243	28.901805150724073	479.2535602156592	573.4011344195765	0.5190839694656488	5.358778625954198	0.33587786259541985	-0.09895052473763118	0.38530734632683655	0.10494752623688156	
1.7089507228117346E12	2.3369565217391304	-6.663043478260869	2.0	3928.205128205128	128.0	128.0	6.990965842123728	21.947188609503343	28.93815445162707	479.2521177830837	573.3813009716631	-7.480916030534351	4.961832061068702	0.42748091603053434	-0.10344827586206896	0.3823088455772114	0.10494752623688156	
1.708950722831266E12	2.260869565217391	-6.413043478260869	2.5869565217391304	3901.8315018315016	128.0	128.0	6.971781488869368	21.982816694118583	28.95459818298795	479.2511802019096	573.3802191472315	2.8244274809160306	10.244274809160306	0.42748091603053434	-0.09895052473763118	0.4002998500749625	0.08995502248875561	
1.7089507228507976E12	2.130434782608696	-6.467391304347826	2.5543478260869565	3929.6703296703295	128.0	128.0	6.988730071631679	21.998106479419054	28.986836551050732	479.2493771611902	573.38973920223	-1.6335877862595418	6.1679389312977095	0.9312977099236641	-0.08995502248875561	0.383808095952024	0.11394302848575712	
1.708950722870329E12	2.1956521739130435	-6.554347826086956	2.5760869565217392	3904.7619047619046	128.0	128.0	6.996735572425792	22.014333845893606	29.011069418319398	479.24483349857735	573.387791918253	-2.3664122137404577	5.083969465648854	0.7175572519083969	-0.08995502248875561	0.383808095952024	0.11094452773613193	
1.7089507228898606E12	2.260869565217391	-6.521739130434782	2.5217391304347827	3929.6703296703295	128.0	128.0	7.014044763331982	22.057895309674183	29.071940073006164	479.2436074308881	573.4144047992712	0.6564885496183206	4.641221374045801	0.9465648854961831	-0.09295352323838081	0.40629685157421286	0.10344827586206896	
1.708950722909392E12	2.3043478260869565	-6.532608695652174	2.652173913043478	3929.6703296703295	128.0	128.0	7.040657644350248	22.090061556108186	29.130719200458433	479.24209287668384	573.4413061668046	2.4122137404580153	5.480916030534351	0.6870229007633587	-0.095952023988006	0.39280359820089955	0.10494752623688156	
1.7089507229289236E12	2.282608695652174	-6.510869565217391	2.608695652173913	3926.7399267399264	128.0	128.0	7.055154091734182	22.149706143105764	29.204860234839945	479.24000134944936	573.4844349008125	0.7175572519083969	6.0	0.5954198473282443	-0.10044977511244378	0.40929535232383807	0.11394302848575712	
1.708950722948455E12	2.2717391304347827	-6.467391304347826	2.5978260869565215	3928.205128205128	128.0	128.0	7.1206405306626	22.28414085914384	29.404781389806438	479.23942437641915	573.5222266342911	1.2519083969465647	5.267175572519084	1.083969465648855	-0.08995502248875561	0.3913043478260869	0.1169415292353823	
1.7089507229679866E12	2.25	-6.467391304347826	2.5978260869565215	3928.205128205128	128.0	128.0	7.137733356682463	22.37010984064458	29.507843197327045	479.2353855652077	573.5114805116035	1.0229007633587786	5.3893129770992365	0.6870229007633587	-0.09295352323838081	0.38830584707646176	0.09895052473763118	
1.7089507229875183E12	2.260869565217391	-6.478260869565217	2.641304347826087	3926.7399267399264	128.0	128.0	7.100807082749258	22.413022209766176	29.513829292515435	479.2366116328969	573.4256557733603	1.129770992366412	5.923664122137405	0.564885496183206	-0.095952023988006	0.39730134932533734	0.09745127436281859	
1.7089507230070498E12	2.25	-6.467391304347826	2.630434782608696	3926.7399267399264	128.0	128.0	7.036474589881252	22.28789118384018	29.324365773721432	479.23552980846523	573.3620444967801	1.7404580152671756	6.793893129770992	0.7938931297709924	-0.10494752623688156	0.3913043478260869	0.10644677661169415	
1.7089507230265813E12	2.260869565217391	-6.489130434782608	2.6630434782608696	3901.8315018315016	128.0	128.0	6.975459691936933	22.098427665046177	29.07388735698311	479.2348085921775	573.3189157627721	1.0687022900763359	6.351145038167939	0.7175572519083969	-0.10044977511244378	0.39430284857571213	0.11094452773613193	
1.7089507230461128E12	2.282608695652174	-6.5	2.7065217391304346	3928.205128205128	128.0	128.0	6.949207419062546	22.046211605812505	28.99541902487505	479.23387101100343	573.3015344502371	0.4427480916030534	6.473282442748092	0.5038167938931297	-0.09745127436281859	0.39430284857571213	0.10644677661169415	
1.7089507230656443E12	2.260869565217391	-6.521739130434782	2.6956521739130435	3928.205128205128	128.0	128.0	6.936730377284334	22.008780480477867	28.9455108577622	479.2336546461171	573.2978562471695	0.16793893129770993	6.198473282442748	0.6717557251908397	-0.08545727136431784	0.3988005997001499	0.095952023988006	
1.7089507230851758E12	2.2717391304347827	-6.467391304347826	2.9456521739130435	3926.7399267399264	128.0	128.0	6.931753984898804	21.99435615472271	28.926110139621514	479.2314909972538	573.2918701519811	-0.12213740458015267	6.1679389312977095	0.5954198473282443	-0.08845577211394302	0.39280359820089955	0.08695652173913043	
1.7089507231047073E12	2.260869565217391	-6.554347826086956	2.543478260869565	3928.205128205128	128.0	128.0	6.926777592513274	21.98353791040634	28.910315502919616	479.23430374077606	573.3016065718659	-0.8244274809160305	6.916030534351145	0.7633587786259541	-0.09295352323838081	0.38830584707646176	0.11094452773613193	
1.7089507231242388E12	2.2065217391304346	-6.5	2.7717391304347827	3928.205128205128	128.0	128.0	6.947188013456824	21.977479693589174	28.924667707045998	479.2304091728222	573.3069435723953	0.8396946564885496	7.0534351145038165	0.7938931297709924	-0.095952023988006	0.3823088455772114	0.10794602698650674	
1.7089507231437703E12	2.2282608695652173	-6.423913043478261	2.793478260869565	3903.296703296703	128.0	128.0	6.9448801213359985	22.00373196646356	28.94861208779956	479.22918310513296	573.3109102619779	1.5114503816793892	6.3969465648854955	1.1603053435114503	-0.09295352323838081	0.38830584707646176	0.09295352323838081	
1.7089507231633018E12	2.25	-6.5	2.7282608695652173	3928.205128205128	128.0	128.0	6.948125594630909	22.016136886612998	28.964262481243907	479.2301206863071	573.3286521826568	0.12213740458015267	6.65648854961832	0.6259541984732824	-0.10644677661169415	0.39280359820089955	0.09745127436281859	
1.7089507231828333E12	2.2717391304347827	-6.478260869565217	2.8478260869565215	3900.3663003663	128.0	128.0	6.943077080616604	22.023349049490577	28.96642613010718	479.2308419025948	573.3305994666338	0.5038167938931297	7.190839694656488	0.48854961832061067	-0.09295352323838081	0.4197901049475262	0.095952023988006	
1.7089507232023647E12	2.2717391304347827	-6.521739130434782	2.7717391304347827	3929.6703296703295	128.0	128.0	6.944303148305792	22.0253684550963	28.96967160340209	479.2295437132769	573.3268491419375	0.183206106870229	7.480916030534351	0.732824427480916	-0.08995502248875561	0.40629685157421286	0.10344827586206896	
1.7089507232218962E12	2.260869565217391	-6.478260869565217	2.7717391304347827	3928.205128205128	128.0	128.0	6.955265635879712	22.002145290630494	28.957410926510207	479.2286782537316	573.3239642767865	0.7022900763358778	7.526717557251908	0.5954198473282443	-0.09745127436281859	0.39430284857571213	0.09895052473763118	
1.7089507232414277E12	2.2282608695652173	-6.478260869565217	2.7717391304347827	3926.7399267399264	128.0	128.0	6.945745580881308	22.007049561387248	28.952795142268556	479.22629823998193	573.3202860737189	0.3053435114503817	7.526717557251908	0.6412213740458015	-0.08995502248875561	0.3988005997001499	0.10344827586206896	
1.7089507232609592E12	2.2282608695652173	-6.434782608695652	2.8043478260869565	3901.8315018315016	128.0	128.0	6.93370126887575	22.002145290630494	28.935846559506246	479.22716369952724	573.3199975872037	0.04580152671755725	7.190839694656488	0.32061068702290074	-0.08845577211394302	0.41529235382308843	0.08695652173913043	
1.708950723280491E12	2.25	-6.456521739130435	2.8152173913043477	3929.6703296703295	128.0	128.0	6.923964848991019	22.00099134457008	28.9249561935611	479.22802915907255	573.3107660187204	-1.0381679389312977	7.236641221374046	0.7175572519083969	-0.08845577211394302	0.39730134932533734	0.10494752623688156	
1.7089507233000225E12	2.25	-6.478260869565217	2.8478260869565215	3926.7399267399264	128.0	128.0	6.917978753802628	21.998683452449256	28.916662206251885	479.22716369952724	573.3072320589105	-0.7633587786259541	7.083969465648854	0.7938931297709924	-0.08995502248875561	0.383808095952024	0.10344827586206896	
1.708950723319554E12	2.2717391304347827	-6.510869565217391	2.8260869565217392	3929.6703296703295	128.0	128.0	6.931249133497373	21.986567018814924	28.917816152312298	479.2254327804366	573.2950435036473	-0.6106870229007634	7.190839694656488	0.7786259541984732	-0.0914542728635682	0.3823088455772114	0.10794602698650674	
1.7089507233390854E12	2.260869565217391	-6.5	2.8043478260869565	3904.7619047619046	128.0	128.0	6.930744282095943	21.987071870216354	28.917816152312298	479.2257212669517	573.3052126533047	-0.2748091603053435	7.1603053435114505	0.41221374045801523	-0.10044977511244378	0.4017991004497751	0.095952023988006	
1.708950723358617E12	2.260869565217391	-6.478260869565217	2.8369565217391304	3929.6703296703295	128.0	128.0	6.924613943650001	21.972791787718748	28.89740573136875	479.22521641555034	573.3022556665248	0.42748091603053434	7.1603053435114505	0.3053435114503817	-0.08245877061469264	0.40929535232383807	0.10344827586206896	
1.7089507233781484E12	2.2717391304347827	-6.467391304347826	2.8478260869565215	3928.205128205128	128.0	128.0	6.922161808271624	21.97019540908282	28.892357217354444	479.22651460486827	573.3050684100472	0.2748091603053435	7.206106870229007	0.38167938931297707	-0.10044977511244378	0.38830584707646176	0.09895052473763118	
1.70895072339768E12	2.25	-6.467391304347826	2.858695652173913	3925.274725274725	128.0	128.0	6.926777592513274	21.96384870575055	28.890626298263825	479.22391822623234	573.2954041117912	-0.6717557251908397	7.236641221374046	0.3511450381679389	-0.08995502248875561	0.39430284857571213	0.11094452773613193	
1.7089507234172114E12	2.293478260869565	-6.478260869565217	2.869565217391304	3928.205128205128	128.0	128.0	6.924469700392449	21.96882509813608	28.89329479852853	479.22362973971724	573.3070156940241	-1.129770992366412	7.083969465648854	0.564885496183206	-0.07796101949025487	0.4017991004497751	0.08845577211394302	
1.708950723436743E12	2.2717391304347827	-6.478260869565217	2.8478260869565215	3928.205128205128	128.0	128.0	6.9243254571348976	21.96658932764403	28.89091478477893	479.22362973971724	573.2938174359581	-0.9312977099236641	6.793893129770992	0.2748091603053435	-0.09295352323838081	0.4017991004497751	0.09295352323838081	
1.7089507234562744E12	2.260869565217391	-6.478260869565217	2.858695652173913	3926.7399267399264	128.0	128.0	6.92273878130183	21.965435381583617	28.88817416288545	479.22362973971724	573.2992265581163	-1.3435114503816794	6.748091603053435	0.38167938931297707	-0.08995502248875561	0.3988005997001499	0.10344827586206896	
1.708950723475806E12	2.2717391304347827	-6.478260869565217	2.869565217391304	3928.205128205128	128.0	128.0	6.912064780243013	21.967887516961994	28.87995229720501	479.22521641555034	573.2993708013738	-1.9389312977099236	6.763358778625954	0.6259541984732824	-0.08845577211394302	0.39730134932533734	0.10194902548725637	
1.7089507234953374E12	2.282608695652174	-6.478260869565217	2.891304347826087	3901.8315018315016	128.0	128.0	6.916392077969561	21.957790488933384	28.874182566902945	479.22449519926255	573.2964859362228	-2.4427480916030535	6.687022900763359	0.22900763358778625	-0.09745127436281859	0.4017991004497751	0.095952023988006	
1.708950723514869E12	2.2717391304347827	-6.467391304347826	2.902173913043478	3928.205128205128	128.0	128.0	6.927931538573687	21.945385568783948	28.873317107357636	479.22507217229276	573.2894901382316	-2.5801526717557253	6.198473282442748	0.3053435114503817	-0.10344827586206896	0.41079460269865065	0.10494752623688156	
1.7089507235344004E12	2.282608695652174	-6.467391304347826	2.869565217391304	3928.205128205128	128.0	128.0	6.9305279172096155	21.945746176927827	28.876274094137443	479.22391822623234	573.2963416929653	-3.5725190839694654	6.65648854961832	0.4580152671755725	-0.09895052473763118	0.41079460269865065	0.09745127436281859	
1.708950723553932E12	2.25	-6.5	2.880434782608696	3926.7399267399264	128.0	128.0	6.92360424084714	21.94228433874659	28.86588857959373	479.2232691315734	573.2942501657308	-3.5114503816793894	6.6106870229007635	0.5343511450381679	-0.08995502248875561	0.3988005997001499	0.09895052473763118	
1.7089507235734636E12	2.260869565217391	-6.489130434782608	2.902173913043478	3928.205128205128	128.0	128.0	6.922089686642848	21.945097082268845	28.867186768911694	479.2247115641489	573.2760033936505	-3.3587786259541983	6.045801526717557	0.48854961832061067	-0.09745127436281859	0.3988005997001499	0.09895052473763118	
1.708950723592995E12	2.2717391304347827	-6.456521739130435	2.880434782608696	3928.205128205128	128.0	128.0	6.930816403724719	21.94004856825454	28.87086497197926	479.22463944252013	573.2819894888389	-2.748091603053435	6.015267175572519	0.5343511450381679	-0.09745127436281859	0.4017991004497751	0.10344827586206896	
1.7089507236125266E12	2.25	-6.456521739130435	2.880434782608696	3926.7399267399264	128.0	128.0	6.93817280985985	22.009213210250522	28.947386020110372	479.22420671274745	573.2770130964534	-3.2061068702290076	5.908396946564885	0.5954198473282443	-0.08395802098950525	0.4047976011994003	0.10194902548725637	
1.708950723632058E12	2.293478260869565	-6.5	2.8260869565217392	3928.205128205128	128.0	128.0	6.971493002354265	22.048591619562107	29.02008462191637	479.225000050664	573.2690075956592	-4.2748091603053435	6.687022900763359	0.8702290076335878	-0.08845577211394302	0.39730134932533734	0.08995502248875561	
1.7089507236515896E12	2.3043478260869565	-6.510869565217391	2.869565217391304	3903.296703296703	128.0	128.0	6.96968996163487	22.044192200206783	29.013882161841654	479.2242788343762	573.2476595935416	-5.49618320610687	7.175572519083969	0.8854961832061068	-0.09295352323838081	0.39430284857571213	0.10344827586206896	
1.708950723671121E12	2.293478260869565	-6.532608695652174	2.9782608695652173	3929.6703296703295	128.0	128.0	6.959953541750139	21.943438284807	28.90339182655714	479.22521641555034	573.2839367728159	-7.893129770992366	6.916030534351145	1.0229007633587786	-0.08845577211394302	0.38980509745127434	0.10194902548725637	
1.7089507236906526E12	2.293478260869565	-6.554347826086956	2.891304347826087	3928.205128205128	128.0	128.0	6.959737176863811	21.923821201779987	28.883558378643798	479.22478368577765	573.2744888394462	-7.893129770992366	6.824427480916031	0.7175572519083969	-0.09295352323838081	0.4017991004497751	0.11094452773613193	
1.708950723710184E12	2.3152173913043477	-6.489130434782608	2.782608695652174	3925.274725274725	128.0	128.0	6.9730075565585565	21.885813103415146	28.858820659973702	479.22665884812585	573.2857398135352	-6.259541984732824	7.419847328244274	0.7938931297709924	-0.095952023988006	0.38980509745127434	0.10194902548725637	
1.7089507237297156E12	2.2717391304347827	-6.5	2.869565217391304	3928.205128205128	128.0	128.0	6.977767584057759	21.86929725042549	28.84706483448325	479.2261539967244	573.2833597997857	-8.687022900763358	7.221374045801526	1.2671755725190839	-0.07796101949025487	0.40629685157421286	0.10344827586206896	
1.708950723749247E12	2.25	-6.532608695652174	2.891304347826087	3928.205128205128	128.0	128.0	7.0230599669289555	21.790540431802327	28.813600398731282	479.22838976721647	573.3753869981035	-9.740458015267174	6.778625954198473	1.2213740458015268	-0.10344827586206896	0.4002998500749625	0.10494752623688156	
1.7089507237687786E12	2.3152173913043477	-6.478260869565217	2.7717391304347827	3926.7399267399264	128.0	128.0	7.110976232406644	22.40898339855473	29.519959630961377	479.2312025107387	572.8916672339043	-6.702290076335878	6.305343511450381	0.916030534351145	-0.10644677661169415	0.41529235382308843	0.0944527736131934	
1.70895072378831E12	2.3152173913043477	-6.445652173913043	2.869565217391304	3928.205128205128	128.0	128.0	7.073040255670579	22.51247793584799	29.58551819151857	479.23228433517033	572.6248172074339	-5.908396946564885	6.595419847328244	1.1603053435114503	-0.09895052473763118	0.41079460269865065	0.10194902548725637	
1.7089507238078416E12	2.217391304347826	-6.532608695652174	2.4782608695652173	3901.8315018315016	128.0	128.0	7.096696149909038	21.61975641486125	28.71645256477029	479.2332940379732	573.3140836136441	-6.412213740458015	7.358778625954198	1.0229007633587786	-0.08545727136431784	0.3913043478260869	0.09895052473763118	
1.708950723827373E12	2.152173913043478	-6.260869565217391	3.25	3928.205128205128	128.0	128.0	7.102393758582325	21.749791711544006	28.85218547012633	479.2357461733516	573.3859167559048	-4.9465648854961835	4.122137404580153	1.2671755725190839	-0.09295352323838081	0.3988005997001499	0.10344827586206896	
1.7089507238469045E12	2.3478260869565215	-6.510869565217391	2.3260869565217392	3926.7399267399264	128.0	128.0	7.049456483060895	21.838501314938227	28.88795779799912	479.23646738963936	573.378776714656	-8.916030534351144	8.625954198473282	1.0076335877862594	-0.08995502248875561	0.4017991004497751	0.10644677661169415	
1.7089507238664363E12	2.3260869565217392	-6.4021739130434785	2.717391304347826	3923.8095238095234	128.0	128.0	7.041162495751679	21.856820208647278	28.897982704398956	479.2379098222149	573.3763967009064	-5.129770992366412	11.49618320610687	1.4045801526717556	-0.08845577211394302	0.39280359820089955	0.10494752623688156	
1.7089507238859678E12	2.2065217391304346	-6.5	2.7391304347826084	3928.205128205128	128.0	128.0	7.053495294272339	21.8793942784541	28.932889572726438	479.23855891687384	573.3831040123825	-7.923664122137405	8.122137404580153	1.5267175572519083	-0.095952023988006	0.3748125937031484	0.0944527736131934	
1.7089507239054993E12	2.2065217391304346	-6.5978260869565215	2.7282608695652173	3920.879120879121	128.0	128.0	7.057678348741335	21.91076718697157	28.968445535712902	479.23913588990405	573.3810124851481	-8.16793893129771	6.824427480916031	1.465648854961832	-0.08845577211394302	0.39280359820089955	0.10194902548725637	
1.7089507239250308E12	2.3043478260869565	-6.543478260869565	2.6630434782608696	3926.7399267399264	128.0	128.0	7.076285728965489	21.9386782573078	29.01496398627329	479.2396407413055	573.4211121107473	-5.465648854961832	6.122137404580153	1.6335877862595418	-0.08995502248875561	0.4017991004497751	0.095952023988006	
1.7089507239445623E12	2.25	-6.510869565217391	2.6739130434782608	3928.205128205128	128.0	128.0	7.088762770743701	21.976397869157537	29.06516063990124	479.2403619575932	573.4472201403643	-6.412213740458015	6.900763358778626	1.5419847328244274	-0.08845577211394302	0.4047976011994003	0.10494752623688156	
1.7089507239640938E12	2.260869565217391	-6.467391304347826	2.684782608695652	3901.8315018315016	128.0	128.0	7.123309030927305	22.022555711574043	29.14586474250135	479.2396407413055	573.484290657555	-7.435114503816793	6.488549618320611	1.5267175572519083	-0.08245877061469264	0.3988005997001499	0.11094452773613193	
1.7089507239836252E12	2.25	-6.467391304347826	2.652173913043478	3929.6703296703295	128.0	128.0	7.177832982281802	22.155692238294154	29.333525220575957	479.2398571061918	573.5393915819396	-7.49618320610687	6.824427480916031	1.6946564885496183	-0.08245877061469264	0.38830584707646176	0.10344827586206896	
1.7089507240031567E12	2.2391304347826084	-6.413043478260869	2.5869565217391304	3928.205128205128	128.0	128.0	7.196368240877181	22.242743044226533	29.439111285103714	479.2401455927069	573.5307369864865	-6.946564885496183	6.152671755725191	1.465648854961832	-0.07796101949025487	0.3988005997001499	0.095952023988006	
1.7089507240226882E12	2.2391304347826084	-6.478260869565217	2.6739130434782608	3923.8095238095234	128.0	128.0	7.198676132998006	22.305777347776576	29.504453480774583	479.23899164664647	573.4471480187354	-6.045801526717557	6.641221374045801	1.129770992366412	-0.0914542728635682	0.38980509745127434	0.10794602698650674	
1.7089507240422197E12	2.2391304347826084	-6.489130434782608	2.5543478260869565	3929.6703296703295	128.0	128.0	7.141700046265131	22.225073245176464	29.366773291441596	479.24180439016874	573.3778391334819	-5.770992366412213	6.5038167938931295	1.297709923664122	-0.07646176911544228	0.4002998500749625	0.10194902548725637	
1.7089507240617512E12	2.217391304347826	-6.489130434782608	2.684782608695652	3928.205128205128	128.0	128.0	7.058760173172972	22.04231703785861	29.101077211031583	479.2430304578579	573.3164636273938	-4.916030534351145	6.1679389312977095	1.099236641221374	-0.08995502248875561	0.3988005997001499	0.09895052473763118	
1.7089507240812827E12	2.2717391304347827	-6.521739130434782	2.6630434782608696	3926.7399267399264	128.0	128.0	7.0220502641260945	21.97113299025691	28.993183254383002	479.2425977280853	573.2963416929653	-5.587786259541985	6.2748091603053435	0.9312977099236641	-0.08395802098950525	0.38530734632683655	0.10194902548725637	
1.7089507241008142E12	2.2282608695652173	-6.565217391304348	2.652173913043478	3928.205128205128	128.0	128.0	7.00978958723421	21.92425393155264	28.93404351878685	479.24562683649384	573.2998035311465	-5.740458015267175	6.076335877862595	0.8549618320610687	-0.08545727136431784	0.3988005997001499	0.11394302848575712	
1.7089507241203457E12	2.2391304347826084	-6.554347826086956	2.4456521739130435	3901.8315018315016	128.0	128.0	7.013684155188103	21.889707671369038	28.90339182655714	479.2491607963039	573.302832639555	-5.251908396946565	5.969465648854961	0.8549618320610687	-0.09895052473763118	0.39280359820089955	0.10194902548725637	
1.7089507241398772E12	2.2391304347826084	-6.467391304347826	2.7282608695652173	3929.6703296703295	128.0	128.0	6.999259829432945	21.89821802356458	28.897477852997525	479.2493050395614	573.3077369103119	-2.900763358778626	6.351145038167939	1.1450381679389312	-0.08845577211394302	0.39280359820089955	0.11244377811094453	
1.708950724159409E12	2.1956521739130435	-6.423913043478261	2.5760869565217392	3928.205128205128	128.0	128.0	7.008347154658694	21.8999489426552	28.908296097313894	479.2511080802808	573.3235315470138	-5.648854961832061	5.419847328244274	1.3282442748091603	-0.08845577211394302	0.38980509745127434	0.0944527736131934	
1.7089507241789404E12	2.217391304347826	-6.445652173913043	2.5978260869565215	3922.344322344322	128.0	128.0	7.014044763331982	21.907738078562986	28.921782841894967	479.2509638370233	573.312496937811	-4.106870229007633	7.8473282442748085	1.4198473282442747	-0.09295352323838081	0.4017991004497751	0.11094452773613193	
1.708950724198472E12	2.260869565217391	-6.467391304347826	2.619565217391304	3901.8315018315016	128.0	128.0	7.020175101777924	21.902401078033577	28.9225761798115	479.2524062695988	573.3158145327347	-5.541984732824427	6.641221374045801	1.297709923664122	-0.08845577211394302	0.39730134932533734	0.10194902548725637	
1.7089507242180034E12	2.2282608695652173	-6.5	2.619565217391304	3926.7399267399264	128.0	128.0	7.01801145291465	21.923676958522435	28.941688411437084	479.2547862833484	573.2992986797451	-4.9465648854961835	7.969465648854961	1.4045801526717556	-0.09295352323838081	0.39430284857571213	0.1169415292353823	
1.708950724237535E12	2.25	-6.5	2.5760869565217392	3925.274725274725	128.0	128.0	7.002216816212752	21.924181809923866	28.926398626136617	479.25392082380307	573.3099726808039	-5.83206106870229	8.259541984732824	1.6030534351145038	-0.08245877061469264	0.39430284857571213	0.10644677661169415	
1.7089507242570664E12	2.2391304347826084	-6.489130434782608	2.5869565217391304	3926.7399267399264	128.0	128.0	7.006039262537869	21.944592230867414	28.950631493405282	479.2550026482347	573.3015344502371	-5.404580152671755	8.48854961832061	1.66412213740458	-0.08545727136431784	0.38830584707646176	0.09895052473763118	
1.708950724276598E12	2.2282608695652173	-6.445652173913043	2.5652173913043477	3903.296703296703	128.0	128.0	7.001279235038667	21.923676958522435	28.9249561935611	479.2573826619843	573.3057175047061	-6.0	8.183206106870228	1.66412213740458	-0.0914542728635682	0.39730134932533734	0.10794602698650674	
1.7089507242961294E12	2.217391304347826	-6.456521739130435	2.532608695652174	3928.205128205128	128.0	128.0	7.001639843182546	21.91740237681894	28.919042220001486	479.257815391757	573.3060781128501	-6.183206106870228	7.83206106870229	1.5267175572519083	-0.07646176911544228	0.39730134932533734	0.10494752623688156	
1.708950724315661E12	2.2282608695652173	-6.478260869565217	2.5869565217391304	3928.205128205128	128.0	128.0	7.0058950192803175	21.91040657882769	28.916301598108006	479.2588972161886	573.3106938970917	-6.2748091603053435	7.633587786259541	1.4351145038167938	-0.08995502248875561	0.39430284857571213	0.10644677661169415	
1.7089507243351924E12	2.2282608695652173	-6.5	2.5	3923.8095238095234	128.0	128.0	7.001856208068873	21.89684771261784	28.898703920686714	479.2612051083094	573.3245412498167	-6.687022900763359	7.877862595419847	1.297709923664122	-0.09295352323838081	0.40629685157421286	0.11094452773613193	
1.7089507243547239E12	2.2391304347826084	-6.5	2.467391304347826	3926.7399267399264	128.0	128.0	6.996086477766809	21.911560524888102	28.90764700265491	479.26199844622596	573.314155735273	-6.305343511450381	7.541984732824427	1.0076335877862594	-0.08245877061469264	0.39430284857571213	0.11394302848575712	
1.7089507243742554E12	2.2065217391304346	-6.5	2.4891304347826084	3928.205128205128	128.0	128.0	7.000341653864582	21.905502308070936	28.905843961935517	479.2643063383468	573.3165357490225	-5.740458015267175	7.221374045801526	0.7175572519083969	-0.08845577211394302	0.39730134932533734	0.09745127436281859	
1.7089507243937869E12	2.217391304347826	-6.489130434782608	2.467391304347826	3928.205128205128	128.0	128.0	6.991975544926589	21.904204118752972	28.89617966367956	479.26610937906617	573.3247576147029	-5.66412213740458	7.099236641221374	0.9312977099236641	-0.08845577211394302	0.38980509745127434	0.11244377811094453	
1.7089507244133184E12	2.2391304347826084	-6.456521739130435	2.510869565217391	3928.205128205128	128.0	128.0	6.990316747464746	21.910334457198914	28.90065120466366	479.26683059535395	573.3168242355376	-5.679389312977099	7.0534351145038165	0.9007633587786259	-0.08995502248875561	0.39430284857571213	0.09295352323838081	
1.7089507244328499E12	2.217391304347826	-6.5	2.4891304347826084	3901.8315018315016	128.0	128.0	6.987864612086369	21.921946039431816	28.909810651518185	479.2693548523611	573.3228824523547	-6.015267175572519	7.099236641221374	0.732824427480916	-0.08995502248875561	0.3913043478260869	0.095952023988006	
1.7089507244523816E12	2.217391304347826	-6.445652173913043	2.4456521739130435	3928.205128205128	128.0	128.0	6.998466491516411	21.91213749791831	28.91060398943472	479.27050879842153	573.319564857431	-5.557251908396946	7.068702290076335	0.6564885496183206	-0.08545727136431784	0.3913043478260869	0.10644677661169415	
1.708950724471913E12	2.1956521739130435	-6.467391304347826	2.5217391304347827	3928.205128205128	128.0	128.0	6.999548315948048	21.929374567195723	28.92892288314377	479.27195123099705	573.3188436411433	-5.114503816793893	6.809160305343511	0.6717557251908397	-0.09745127436281859	0.39430284857571213	0.095952023988006	
1.7089507244914446E12	2.2065217391304346	-6.5	2.4891304347826084	3920.879120879121	128.0	128.0	6.995076774963948	21.918700566136906	28.913777341100854	479.2735379068301	573.3136508838714	-4.793893129770992	6.244274809160305	0.42748091603053434	-0.09745127436281859	0.38080959520239877	0.09895052473763118	
1.708950724510976E12	2.2065217391304346	-6.5	2.4891304347826084	3925.274725274725	128.0	128.0	6.9932737342445535	21.929302445566947	28.9225761798115	479.27534094754947	573.3216563846656	-3.9541984732824424	6.381679389312977	0.2748091603053435	-0.09295352323838081	0.3913043478260869	0.11094452773613193	
1.7089507245305076E12	2.217391304347826	-6.445652173913043	2.467391304347826	3928.205128205128	128.0	128.0	6.996086477766809	21.92584060738571	28.921927085152518	479.2729609337999	573.3194927358023	-3.7251908396946565	6.3969465648854955	0.5038167938931297	-0.0914542728635682	0.39730134932533734	0.09745127436281859	
1.708950724550039E12	2.2282608695652173	-6.456521739130435	2.4891304347826084	3928.205128205128	128.0	128.0	6.993778585645984	21.941635244087607	28.93541382973359	479.2749803394056	573.3186993978858	-3.6030534351145036	6.412213740458015	0.5038167938931297	-0.09745127436281859	0.38080959520239877	0.11094452773613193	
1.7089507245695706E12	2.2065217391304346	-6.456521739130435	2.4891304347826084	3928.205128205128	128.0	128.0	7.001134991781115	21.976469990786313	28.977604982567428	479.2746918528905	573.3193484925448	-4.519083969465648	6.564885496183206	0.0916030534351145	-0.095952023988006	0.38980509745127434	0.11544227886056971	
1.708950724589102E12	2.2282608695652173	-6.445652173913043	2.4239130434782608	3904.7619047619046	128.0	128.0	7.006471992310524	22.043470983919025	29.04994297622955	479.2757015556934	573.3088187347435	-5.083969465648854	6.7328244274809155	0.5801526717557252	-0.08245877061469264	0.38830584707646176	0.09295352323838081	
1.7089507246086335E12	2.2391304347826084	-6.445652173913043	2.4782608695652173	3928.205128205128	128.0	128.0	7.018083574543426	22.070588716338722	29.088672290882148	479.2770718666401	573.3039865856155	-5.129770992366412	6.641221374045801	0.5954198473282443	-0.08845577211394302	0.4077961019490255	0.10194902548725637	
1.708950724628165E12	2.2391304347826084	-6.445652173913043	2.4456521739130435	3928.205128205128	128.0	128.0	7.003875613674595	21.999981641767224	29.00385725544182	479.2777209612991	573.3214400197793	-4.961832061068702	6.473282442748092	0.183206106870229	-0.09745127436281859	0.3988005997001499	0.11394302848575712	
1.7089507246476965E12	2.25	-6.445652173913043	2.4130434782608696	3920.879120879121	128.0	128.0	6.98887431488923	21.972503301203645	28.961377616092875	479.2764227719811	573.3290127908007	-4.122137404580153	6.778625954198473	0.549618320610687	-0.08995502248875561	0.38830584707646176	0.1169415292353823	
1.708950724667228E12	2.25	-6.434782608695652	2.380434782608696	3928.205128205128	128.0	128.0	6.9888021932604545	21.955338353555007	28.94414054681546	479.27447548800416	573.3240363984152	-4.5038167938931295	7.251908396946565	0.7938931297709924	-0.07496251874062969	0.4017991004497751	0.10644677661169415	
1.7089507246867595E12	2.25	-6.434782608695652	2.3043478260869565	3928.205128205128	128.0	128.0	6.988297341859024	21.956925029388074	28.945222371247098	479.2749803394056	573.3285079393993	-2.259541984732824	6.702290076335878	0.366412213740458	-0.08845577211394302	0.39280359820089955	0.10194902548725637	
1.708950724706291E12	2.2717391304347827	-6.423913043478261	2.3152173913043477	3926.7399267399264	128.0	128.0	6.998754978031514	21.907954443449313	28.906709421480826	479.27433124474663	573.3778391334819	-2.015267175572519	6.854961832061068	0.564885496183206	-0.08845577211394302	0.38530734632683655	0.10194902548725637	
1.7089507247258225E12	2.2391304347826084	-6.467391304347826	2.380434782608696	3928.205128205128	128.0	128.0	7.097705852711899	22.05912137736337	29.15682723007527	479.27389851497395	573.344014089586	-2.4885496183206106	6.793893129770992	0.564885496183206	-0.0914542728635682	0.38980509745127434	0.10194902548725637	
1.7089507247453542E12	2.2717391304347827	-6.5	2.4565217391304346	3903.296703296703	128.0	128.0	6.984907625306562	23.387096928012006	30.37200455331857	479.2729609337999	572.5455555374093	-3.7862595419847325	6.885496183206107	0.8091603053435115	-0.095952023988006	0.39730134932533734	0.09745127436281859	
1.7089507247648857E12	2.260869565217391	-6.467391304347826	2.4239130434782608	3928.205128205128	128.0	128.0	7.0185884259448565	22.011593224000126	29.030181649944982	479.27245608239843	573.255592972707	-5.694656488549618	6.3969465648854955	0.366412213740458	-0.10344827586206896	0.3793103448275862	0.10794602698650674	
1.7089507247844172E12	2.2065217391304346	-6.434782608695652	2.3260869565217392	3928.205128205128	128.0	128.0	7.095542203848625	21.857757789821363	28.953299993669987	479.2702203119064	573.4751312107005	-2.16793893129771	7.190839694656488	0.0916030534351145	-0.09745127436281859	0.39430284857571213	0.12143928035982009	
1.7089507248039487E12	2.2282608695652173	-6.521739130434782	2.4130434782608696	3920.879120879121	128.0	128.0	7.033806089616548	21.96702205741669	29.000828147033236	479.2704366767927	573.4180108807101	-10.381679389312977	5.66412213740458	0.6106870229007634	-0.0914542728635682	0.4002998500749625	0.10194902548725637	
1.7089507248234802E12	2.2282608695652173	-6.413043478260869	2.3478260869565215	3928.205128205128	128.0	128.0	7.020607831550579	21.999981641767224	29.020589473317802	479.2681287846719	573.4053895956743	-0.7786259541984732	9.81679389312977	0.8702290076335878	-0.08545727136431784	0.38830584707646176	0.10644677661169415	
1.7089507248430117E12	2.1956521739130435	-6.434782608695652	2.3260869565217392	3928.205128205128	128.0	128.0	7.011953236097484	22.034527901950828	29.04648113804831	479.2684893928158	573.4068320282498	-5.572519083969466	6.549618320610687	0.5343511450381679	-0.07796101949025487	0.37631184407796103	0.11094452773613193	
1.7089507248625432E12	2.1847826086956523	-6.532608695652174	2.4891304347826084	3926.7399267399264	128.0	128.0	7.02846908908714	22.043615227176577	29.072084316263716	479.2645948248619	573.4070483931362	-5.603053435114504	5.083969465648854	0.47328244274809156	-0.08995502248875561	0.39430284857571213	0.10644677661169415	
1.7089507248820747E12	2.2717391304347827	-6.5978260869565215	2.3478260869565215	3926.7399267399264	128.0	128.0	7.032435778669808	22.089556704706755	29.121992483376562	479.2625032976274	573.403225946811	-1.5267175572519083	5.923664122137405	0.42748091603053434	-0.08095952023988005	0.39280359820089955	0.11544227886056971	
1.7089507249016062E12	2.3043478260869565	-6.489130434782608	2.358695652173913	3901.8315018315016	128.0	128.0	7.046499496281087	22.11790050481564	29.164400001096727	479.26214268948354	573.409356285257	0.2900763358778626	6.259541984732824	0.7480916030534351	-0.08845577211394302	0.38530734632683655	0.10194902548725637	
1.7089507249211377E12	2.25	-6.478260869565217	2.4347826086956523	3929.6703296703295	128.0	128.0	7.088979135630028	22.178338429729756	29.267317565359782	479.2589693378174	573.447292261993	-1.2519083969465647	6.076335877862595	0.7786259541984732	-0.08995502248875561	0.38830584707646176	0.10344827586206896	
1.7089507249406692E12	2.260869565217391	-6.456521739130435	2.4130434782608696	3928.205128205128	128.0	128.0	7.125184193275476	22.258754045814758	29.383938239090234	479.2580317566433	573.4638081149826	-1.2213740458015268	5.923664122137405	0.8549618320610687	-0.0914542728635682	0.4002998500749625	0.10794602698650674	
1.7089507249602007E12	2.260869565217391	-6.5	2.380434782608696	3912.0879120879117	128.0	128.0	7.164778967473384	22.401699114048377	29.566478081521762	479.25291112100024	573.4663323719898	-0.9465648854961831	6.244274809160305	0.8702290076335878	-0.08845577211394302	0.3823088455772114	0.11544227886056971	
1.7089507249797322E12	2.260869565217391	-6.467391304347826	2.4456521739130435	3928.205128205128	128.0	128.0	7.1667262514503305	22.44684725366202	29.613573505112353	479.2556517428937	573.4291176115415	-2.183206106870229	6.259541984732824	0.5038167938931297	-0.09895052473763118	0.39730134932533734	0.0944527736131934	
1.7089507249992637E12	2.2282608695652173	-6.489130434782608	2.4239130434782608	3928.205128205128	128.0	128.0	7.122082963238117	22.412661601622297	29.534744564860414	479.25406506706065	573.3892343508285	-2.763358778625954	6.290076335877862	0.6412213740458015	-0.08995502248875561	0.39430284857571213	0.09895052473763118	
1.7089507250187952E12	2.217391304347826	-6.5	2.4565217391304346	3926.7399267399264	128.0	128.0	7.0302721298065345	22.205023432376798	29.23529556218333	479.25514689149225	573.3505771578047	-2.427480916030534	6.122137404580153	0.6412213740458015	-0.09745127436281859	0.3913043478260869	0.11394302848575712	
1.708950725038327E12	2.260869565217391	-6.478260869565217	2.4565217391304346	3928.205128205128	128.0	128.0	6.996807694054568	22.09907675970516	29.095884453759727	479.25334385077286	573.336946169966	-2.259541984732824	5.648854961832061	0.41221374045801523	-0.08995502248875561	0.383808095952024	0.10344827586206896	
1.7089507250578584E12	2.260869565217391	-6.521739130434782	2.4565217391304346	3901.8315018315016	128.0	128.0	6.969978448149973	22.029118779792643	28.999097227942617	479.2534159724016	573.3362249536783	-2.564885496183206	6.045801526717557	0.5190839694656488	-0.09295352323838081	0.4017991004497751	0.11094452773613193	
1.70895072507739E12	2.2282608695652173	-6.554347826086956	2.282608695652174	3928.205128205128	128.0	128.0	6.963487501560152	22.02421450903589	28.987702010596042	479.25103595865204	573.3213678981505	-1.282442748091603	5.694656488549618	0.47328244274809156	-0.08395802098950525	0.4047976011994003	0.11544227886056971	
1.7089507250969214E12	2.2391304347826084	-6.489130434782608	2.641304347826087	3926.7399267399264	128.0	128.0	6.955698365652367	22.001496195971512	28.95719456162388	479.2517571749398	573.3412013460638	-2.5801526717557253	6.427480916030534	0.48854961832061067	-0.08845577211394302	0.39730134932533734	0.10194902548725637	
1.708950725116453E12	2.217391304347826	-6.5	2.402173913043478	3919.4139194139193	128.0	128.0	6.956996554970331	22.013107778204414	28.970104333174746	479.2511802019096	573.3324025073532	-1.1450381679389312	7.175572519083969	0.5038167938931297	-0.08995502248875561	0.40929535232383807	0.11094452773613193	
1.7089507251359844E12	2.217391304347826	-6.489130434782608	2.4782608695652173	3928.205128205128	128.0	128.0	6.958871717318502	22.01916599502158	28.978037712340083	479.2519735398261	573.3331958452698	-0.7175572519083969	5.984732824427481	0.564885496183206	-0.08245877061469264	0.38830584707646176	0.10344827586206896	
1.7089507251555159E12	2.25	-6.456521739130435	2.532608695652174	3926.7399267399264	128.0	128.0	6.963271136673825	22.033013347746536	28.99628448442036	479.2515408100535	573.3248297363317	-2.4732824427480917	6.259541984732824	0.42748091603053434	-0.08095952023988005	0.39730134932533734	0.10194902548725637	
1.7089507251750474E12	2.2282608695652173	-6.521739130434782	2.5	3925.274725274725	128.0	128.0	6.961756582469533	22.03964853759391	29.001405120063442	479.2503147423643	573.3098284375463	-2.7022900763358777	7.374045801526718	0.48854961832061067	-0.0914542728635682	0.39280359820089955	0.11544227886056971	
1.7089507251945789E12	2.25	-6.510869565217391	2.543478260869565	3926.7399267399264	128.0	128.0	6.970771786066507	22.033157591004088	29.003929377070595	479.25103595865204	573.3135066406139	-2.946564885496183	7.603053435114504	0.2748091603053435	-0.08095952023988005	0.4077961019490255	0.09745127436281859	
1.7089507252141104E12	2.2717391304347827	-6.5	2.467391304347826	3900.3663003663	128.0	128.0	6.9538232033041965	22.038999442934927	28.992822646239123	479.25262263448514	573.3099005591752	-3.465648854961832	7.740458015267175	0.4580152671755725	-0.08845577211394302	0.38980509745127434	0.10794602698650674	
1.7089507252336418E12	2.25	-6.489130434782608	2.4782608695652173	3928.205128205128	128.0	128.0	6.965218420650771	22.0182284138475	28.98344683449827	479.24822321512977	573.3026162746688	-3.9389312977099236	7.297709923664121	0.4580152671755725	-0.07796101949025487	0.39430284857571213	0.11394302848575712	
1.7089507252531733E12	2.2282608695652173	-6.478260869565217	2.4565217391304346	3926.7399267399264	128.0	128.0	6.96283840690117	22.01007866979583	28.972917076697	479.2482953367586	573.3008853555782	-2.4885496183206106	6.8396946564885495	0.32061068702290074	-0.09295352323838081	0.39430284857571213	0.11394302848575712	
1.7089507252727048E12	2.2717391304347827	-6.478260869565217	2.467391304347826	3920.879120879121	128.0	128.0	6.9493516623200975	22.005102277410302	28.9544539397304	479.2499541342204	573.3300946152324	-2.1221374045801524	6.595419847328244	0.7022900763358778	-0.08395802098950525	0.39280359820089955	0.10194902548725637	
1.7089507252922363E12	2.2717391304347827	-6.489130434782608	2.467391304347826	3928.205128205128	128.0	128.0	6.941274039897209	21.99435615472271	28.935630194619918	479.2484395800161	573.3293012773158	-1.9694656488549618	6.748091603053435	0.16793893129770993	-0.10344827586206896	0.39730134932533734	0.10794602698650674	
1.7089507253117678E12	2.25	-6.478260869565217	2.4782608695652173	3928.205128205128	128.0	128.0	6.947909229744582	21.995437979154346	28.943347208898928	479.24923291793266	573.3186993978858	-2.748091603053435	6.381679389312977	0.41221374045801523	-0.08545727136431784	0.3913043478260869	0.11094452773613193	
1.7089507253312996E12	2.2717391304347827	-6.532608695652174	2.510869565217391	3920.879120879121	128.0	128.0	6.941057675010882	21.996159195442104	28.937216870452986	479.24980989096287	573.3257673175058	-2.9618320610687023	6.137404580152672	0.4580152671755725	-0.08395802098950525	0.3793103448275862	0.12293853073463268	
1.708950725350831E12	2.2717391304347827	-6.510869565217391	2.467391304347826	3928.205128205128	128.0	128.0	6.942644350843949	21.974234220294264	28.916878571138213	479.2487280665312	573.3181945464844	-2.2748091603053435	6.015267175572519	0.22900763358778625	-0.07496251874062969	0.383808095952024	0.10344827586206896	
1.7089507253703625E12	2.282608695652174	-6.5	2.4782608695652173	3904.7619047619046	128.0	128.0	6.941418283154761	21.978128788248156	28.919547071402917	479.24735775558446	573.3189157627721	-1.8015267175572518	6.015267175572519	0.2595419847328244	-0.09745127436281859	0.39430284857571213	0.10644677661169415	
1.708950725389894E12	2.260869565217391	-6.478260869565217	2.5	3929.6703296703295	128.0	128.0	6.940336458723124	21.990605830026368	28.930942288749492	479.2474298772133	573.3223776009534	-1.450381679389313	5.862595419847328	-0.12213740458015267	-0.0914542728635682	0.38530734632683655	0.09745127436281859	
1.7089507254094255E12	2.2717391304347827	-6.478260869565217	2.5217391304347827	3931.135531135531	128.0	128.0	6.936946742170662	21.978705761278363	28.915652503449024	479.24779048535714	573.3317534126942	-1.0076335877862594	5.297709923664122	0.07633587786259542	-0.08395802098950525	0.38980509745127434	0.10794602698650674	
1.708950725428957E12	2.3043478260869565	-6.467391304347826	2.532608695652174	3920.879120879121	128.0	128.0	6.937884323344747	21.98151850480062	28.919402828145365	479.2461316878953	573.3249018579605	-1.0534351145038168	5.603053435114504	0.04580152671755725	-0.0914542728635682	0.38980509745127434	0.11244377811094453	
1.7089507254484885E12	2.3152173913043477	-6.489130434782608	2.532608695652174	3929.6703296703295	128.0	128.0	6.926633349255723	21.97993182896755	28.906565178223275	479.24620380952405	573.3199975872037	-1.3282442748091603	5.374045801526718	0.2900763358778626	-0.0914542728635682	0.4002998500749625	0.10494752623688156	
1.70895072546802E12	2.3043478260869565	-6.521739130434782	2.532608695652174	3928.205128205128	128.0	128.0	6.937740080087195	21.975604531241004	28.9133446113282	479.24591532300894	573.3047078019033	-1.114503816793893	5.648854961832061	0.16793893129770993	-0.0914542728635682	0.38530734632683655	0.10794602698650674	
1.7089507254875515E12	2.282608695652174	-6.489130434782608	2.532608695652174	3926.7399267399264	128.0	128.0	6.928075781831239	21.982960937376134	28.911036719207374	479.24663653929673	573.312208451296	-0.8549618320610687	5.679389312977099	0.3511450381679389	-0.08545727136431784	0.4017991004497751	0.10644677661169415	
1.708950725507083E12	2.282608695652174	-6.5	2.5	3928.205128205128	128.0	128.0	6.938894026147608	21.970916625370577	28.909810651518185	479.2449777418349	573.3042750721306	-0.7480916030534351	5.893129770992366	0.3053435114503817	-0.08995502248875561	0.3913043478260869	0.11394302848575712	
1.7089507255266145E12	2.260869565217391	-6.489130434782608	2.5543478260869565	3903.296703296703	128.0	128.0	6.922594538044279	21.993346451919848	28.915940989964128	479.24504986346363	573.3008853555782	-0.9923664122137404	6.076335877862595	0.3969465648854962	-0.0914542728635682	0.4047976011994003	0.10494752623688156	
1.708950725546146E12	2.2717391304347827	-6.467391304347826	2.532608695652174	3928.205128205128	128.0	128.0	6.928075781831239	22.048735862819655	28.976811644650894	479.24591532300894	573.3177618167117	-1.3435114503816794	6.122137404580153	0.41221374045801523	-0.08545727136431784	0.4017991004497751	0.11094452773613193	
1.7089507255656775E12	2.293478260869565	-6.5	2.5652173913043477	3926.7399267399264	128.0	128.0	6.947909229744582	22.098788273190056	29.046697502934638	479.24504986346363	573.2946107738746	-1.7709923664122136	6.229007633587786	0.3969465648854962	-0.08245877061469264	0.39430284857571213	0.10344827586206896	
1.708950725585209E12	2.282608695652174	-6.478260869565217	2.5869565217391304	3919.4139194139193	128.0	128.0	6.9541116898193	22.066549905127278	29.020661594946578	479.2434631876306	573.2783834074002	-2.015267175572519	5.938931297709924	0.5038167938931297	-0.09745127436281859	0.39430284857571213	0.12143928035982009	
1.7089507256047407E12	2.3043478260869565	-6.456521739130435	2.5760869565217392	3928.205128205128	128.0	128.0	6.943726175275586	22.012098075401553	28.95582425067714	479.243318944373	573.2972792741393	-2.5343511450381677	6.244274809160305	0.21374045801526717	-0.09745127436281859	0.383808095952024	0.11094452773613193	
1.7089507256242722E12	2.282608695652174	-6.478260869565217	2.543478260869565	3928.205128205128	128.0	128.0	6.9246860652787765	21.980869410141636	28.905555475420414	479.2423092415702	573.294178044102	-2.045801526717557	6.3969465648854955	0.5038167938931297	-0.095952023988006	0.39280359820089955	0.11544227886056971	
1.7089507256438037E12	2.293478260869565	-6.478260869565217	2.510869565217391	3926.7399267399264	128.0	128.0	6.9329079309592165	21.95526623192623	28.88817416288545	479.24238136319894	573.2979283687984	-1.618320610687023	6.6106870229007635	0.564885496183206	-0.07646176911544228	0.4002998500749625	0.10194902548725637	
1.7089507256633352E12	2.3043478260869565	-6.467391304347826	2.543478260869565	3928.205128205128	128.0	128.0	6.925190916680207	21.944880717382517	28.870071634062725	479.2443286471759	573.300596869063	-1.4351145038167938	6.3969465648854955	0.6259541984732824	-0.09295352323838081	0.38830584707646176	0.10644677661169415	
1.7089507256828667E12	2.293478260869565	-6.521739130434782	2.5760869565217392	3901.8315018315016	128.0	128.0	6.9332685391030955	21.8930973879215	28.826365927024597	479.2412995387673	573.3539668743572	-0.7938931297709924	6.946564885496183	0.7633587786259541	-0.09295352323838081	0.3988005997001499	0.10344827586206896	
1.7089507257023982E12	2.3152173913043477	-6.521739130434782	2.543478260869565	3929.6703296703295	128.0	128.0	7.060923822036246	22.19333972851512	29.254263550551364	479.24180439016874	573.1639985041617	-0.9770992366412213	6.885496183206107	0.8244274809160305	-0.08995502248875561	0.3988005997001499	0.095952023988006	
1.7089507257219297E12	2.3260869565217392	-6.5	2.630434782608696	3928.205128205128	128.0	128.0	7.018660547573632	22.97946548217124	29.99812602974487	479.24209287668384	572.4395367431089	-1.282442748091603	7.603053435114504	1.1450381679389312	-0.0914542728635682	0.39730134932533734	0.10194902548725637	
1.7089507257414612E12	2.3043478260869565	-6.532608695652174	2.4565217391304346	3920.879120879121	128.0	128.0	6.957501406371762	21.803089595209315	28.760591001581076	479.2420207550551	573.2307110107793	-2.6259541984732824	5.984732824427481	0.8244274809160305	-0.08095952023988005	0.4002998500749625	0.10194902548725637	
1.7089507257609927E12	2.260869565217391	-6.3478260869565215	2.967391304347826	3928.205128205128	128.0	128.0	7.056235916165819	21.800565338202162	28.85680125436798	479.2410110522522	573.4214727188913	0.41221374045801523	7.694656488549618	0.2900763358778626	-0.08845577211394302	0.4077961019490255	0.11244377811094453	
1.7089507257805242E12	2.358695652173913	-6.619565217391304	2.1956521739130435	3928.205128205128	128.0	128.0	6.971493002354265	21.942140095489037	28.913633097843302	479.2405062008508	573.3789209579136	-5.297709923664122	5.129770992366412	0.8244274809160305	-0.08995502248875561	0.38830584707646176	0.10344827586206896	
1.7089507258000557E12	2.3260869565217392	-6.391304347826087	2.6956521739130435	3922.344322344322	128.0	128.0	6.960025663378914	21.961035962228294	28.92106162560721	479.2416601469112	573.3791373227999	-0.6717557251908397	8.50381679389313	1.2213740458015268	-0.09295352323838081	0.39430284857571213	0.09895052473763118	
1.7089507258195872E12	2.2391304347826084	-6.5	2.652173913043478	3928.205128205128	128.0	128.0	6.963775988075255	21.99435615472271	28.958132142797965	479.23913588990405	573.4060386903333	-2.732824427480916	7.404580152671755	1.297709923664122	-0.08845577211394302	0.39730134932533734	0.0944527736131934	
1.7089507258391187E12	2.2282608695652173	-6.543478260869565	2.641304347826087	3903.296703296703	128.0	128.0	6.9747384756491755	22.015920521726674	28.99065899737585	479.2377655789573	573.4032980684398	-2.8702290076335877	6.015267175572519	1.129770992366412	-0.09745127436281859	0.37631184407796103	0.11094452773613193	
1.7089507258586501E12	2.3152173913043477	-6.510869565217391	2.5869565217391304	3929.6703296703295	128.0	128.0	6.985268233450441	22.0456346327823	29.03090286623274	479.2360346598667	573.4258000166178	-0.13740458015267176	5.938931297709924	0.8702290076335878	-0.0914542728635682	0.39280359820089955	0.10494752623688156	
1.7089507258781816E12	2.282608695652174	-6.521739130434782	2.6630434782608696	3926.7399267399264	128.0	128.0	7.0093568574615555	22.073329338232202	29.082686195693757	479.2350970786926	573.4487346945685	-0.6259541984732824	6.305343511450381	0.9618320610687022	-0.09295352323838081	0.3913043478260869	0.10644677661169415	
1.7089507258977134E12	2.293478260869565	-6.467391304347826	2.6630434782608696	3919.4139194139193	128.0	128.0	7.030632737950413	22.129439965419767	29.16007270337018	479.2327891865718	573.4915749420613	-1.2061068702290076	6.3969465648854955	0.8702290076335878	-0.08995502248875561	0.3988005997001499	0.10344827586206896	
1.7089507259172449E12	2.282608695652174	-6.489130434782608	2.5869565217391304	3926.7399267399264	128.0	128.0	7.077800283169781	22.25074854502065	29.328548828190428	479.23134675399626	573.5590086649667	-0.2595419847328244	6.3969465648854955	0.9007633587786259	-0.08395802098950525	0.41079460269865065	0.11244377811094453	
1.7089507259367764E12	2.282608695652174	-6.456521739130435	2.619565217391304	3926.7399267399264	128.0	128.0	7.106648934680097	22.335130850688323	29.441779785368418	479.23163524051137	573.5641293006098	-0.7633587786259541	5.7251908396946565	0.6259541984732824	-0.08845577211394302	0.4002998500749625	0.10194902548725637	
1.7089507259563079E12	2.2717391304347827	-6.478260869565217	2.652173913043478	3928.205128205128	128.0	128.0	7.1139332191864515	22.415979196545983	29.529912415732436	479.22889461861786	573.4940991990685	-1.083969465648855	6.366412213740458	0.3969465648854962	-0.08845577211394302	0.38980509745127434	0.11244377811094453	
1.7089507259758394E12	2.282608695652174	-6.478260869565217	2.652173913043478	3926.7399267399264	128.0	128.0	7.073617228700785	22.369749232500702	29.443366461201485	479.22781279418626	573.4066877849922	-2.015267175572519	6.793893129770992	0.8396946564885496	-0.08545727136431784	0.39430284857571213	0.11094452773613193	
1.7089507259953708E12	2.293478260869565	-6.510869565217391	2.6630434782608696	3904.7619047619046	128.0	128.0	6.989956139320867	22.173506280601774	29.16346241992264	479.2299764430495	573.3194927358023	-1.9694656488549618	6.33587786259542	0.5190839694656488	-0.095952023988006	0.4077961019490255	0.10494752623688156	
1.7089507260149023E12	2.293478260869565	-6.510869565217391	2.7282608695652173	3928.205128205128	128.0	128.0	6.953534716789093	22.094172488948406	29.0477072057375	479.2273800644136	573.2988659499724	-1.9694656488549618	6.564885496183206	0.48854961832061067	-0.09295352323838081	0.39430284857571213	0.09895052473763118	
1.7089507260344338E12	2.3043478260869565	-6.5	2.7282608695652173	3929.6703296703295	128.0	128.0	6.952813500501335	22.024286630664662	28.977100131165997	479.22651460486827	573.2853792053913	-2.0763358778625953	6.717557251908397	0.6106870229007634	-0.10044977511244378	0.4017991004497751	0.10644677661169415	
1.7089507260539653E12	2.2717391304347827	-6.510869565217391	2.608695652173913	3917.948717948718	128.0	128.0	6.936225525882904	22.020680549225872	28.956906075108776	479.2282455239589	573.289994989633	-2.6412213740458013	6.916030534351145	0.7175572519083969	-0.09745127436281859	0.39430284857571213	0.095952023988006	
1.7089507260734968E12	2.25	-6.445652173913043	2.9456521739130435	3928.205128205128	128.0	128.0	6.940552823609451	22.009790183280728	28.95034300689018	479.22752430767116	573.2889131652014	-1.3740458015267174	8.13740458015267	0.9770992366412213	-0.08995502248875561	0.39430284857571213	0.095952023988006	
1.7089507260930283E12	2.260869565217391	-6.445652173913043	2.630434782608696	3928.205128205128	128.0	128.0	6.94639467554029	22.00257802040315	28.94897269594344	479.227884915815	573.2985053418286	-1.083969465648855	7.312977099236641	0.9770992366412213	-0.10344827586206896	0.4002998500749625	0.08995502248875561	
1.7089507261125598E12	2.2717391304347827	-6.478260869565217	2.7065217391304346	3926.7399267399264	128.0	128.0	6.942716472472725	22.013612629605845	28.95632910207857	479.2264424832395	573.2969186659955	-3.9389312977099236	6.351145038167939	0.9465648854961831	-0.09895052473763118	0.4047976011994003	0.09745127436281859	
1.7089507261320913E12	2.293478260869565	-6.478260869565217	2.684782608695652	3928.205128205128	128.0	128.0	6.953678960046645	22.018949630135253	28.9726285901819	479.2264424832395	573.3058617479637	-2.5801526717557253	6.381679389312977	1.099236641221374	-0.09295352323838081	0.39430284857571213	0.10344827586206896	
1.7089507261516228E12	2.2717391304347827	-6.489130434782608	2.760869565217391	3903.296703296703	128.0	128.0	6.942860715730276	22.027027252558142	28.96988796828842	479.2261539967244	573.304779923532	-3.9541984732824424	6.854961832061068	0.9007633587786259	-0.10344827586206896	0.39730134932533734	0.08695652173913043	
1.7089507261711543E12	2.3043478260869565	-6.489130434782608	2.641304347826087	3929.6703296703295	128.0	128.0	6.9507219732668375	22.02241146831649	28.97313344158333	479.22694733464095	573.2985774634574	-3.6030534351145036	6.99236641221374	0.7022900763358778	-0.095952023988006	0.39280359820089955	0.10194902548725637	
1.708950726190686E12	2.282608695652174	-6.489130434782608	2.684782608695652	3928.205128205128	128.0	128.0	6.954400176334403	22.01693022452953	28.971330400863934	479.22637036161075	573.2783112857713	-3.4351145038167936	7.404580152671755	0.47328244274809156	-0.09295352323838081	0.3988005997001499	0.10344827586206896	
1.7089507262102175E12	2.282608695652174	-6.489130434782608	2.684782608695652	3919.4139194139193	128.0	128.0	6.951082581410716	22.017867805703617	28.968950387114333	479.22492792903523	573.2751379341051	-3.679389312977099	7.358778625954198	0.8244274809160305	-0.08995502248875561	0.40629685157421286	0.10644677661169415	
1.708950726229749E12	2.260869565217391	-6.478260869565217	2.652173913043478	3929.6703296703295	128.0	128.0	6.956780190084004	22.00805926419011	28.964839454274113	479.22593763183806	573.2689354740305	-4.137404580152672	7.038167938931298	0.8549618320610687	-0.08845577211394302	0.4002998500749625	0.10794602698650674	
1.7089507262492805E12	2.282608695652174	-6.478260869565217	2.5978260869565215	3928.205128205128	128.0	128.0	6.959232325462381	21.998539209191705	28.957771534654086	479.2257212669517	573.2666275819097	-4.351145038167939	7.1603053435114505	0.9923664122137404	-0.08095952023988005	0.39280359820089955	0.10194902548725637	
1.708950726268812E12	2.293478260869565	-6.5	2.684782608695652	3926.7399267399264	128.0	128.0	6.949568027206425	21.994788884495364	28.94435691170179	479.227884915815	573.2622281625544	-4.885496183206107	7.3893129770992365	1.1450381679389312	-0.095952023988006	0.4002998500749625	0.10794602698650674	
1.7089507262883435E12	2.293478260869565	-6.521739130434782	2.684782608695652	3929.6703296703295	128.0	128.0	6.965723272052202	21.98389851855022	28.94962179060242	479.22918310513296	573.2624445274406	-5.694656488549618	7.129770992366412	1.0534351145038168	-0.09745127436281859	0.3988005997001499	0.09895052473763118	
1.708950726307875E12	2.3043478260869565	-6.532608695652174	2.6956521739130435	3904.7619047619046	128.0	128.0	6.969906326521198	21.966156597871375	28.936062924392573	479.22846188884523	573.2586942027443	-4.427480916030534	7.801526717557252	0.7938931297709924	-0.095952023988006	0.39280359820089955	0.10194902548725637	
1.7089507263274065E12	2.3043478260869565	-6.554347826086956	2.6630434782608696	3928.205128205128	128.0	128.0	6.9630547717874975	21.95822321870604	28.921277990493536	479.2311303891099	573.2469383772539	-5.0534351145038165	7.1603053435114505	1.129770992366412	-0.07346326836581708	0.38980509745127434	0.10794602698650674	
1.708950726346938E12	2.282608695652174	-6.5	2.608695652173913	3928.205128205128	128.0	128.0	6.967454191142821	21.955554718441334	28.923008909584155	479.2306976593373	573.2431880525576	-4.885496183206107	6.900763358778626	1.0687022900763359	-0.09745127436281859	0.383808095952024	0.09895052473763118	
1.7089507263664695E12	2.3043478260869565	-6.489130434782608	2.6630434782608696	3917.948717948718	128.0	128.0	6.979786989663481	21.936730973330853	28.916517962994334	479.23372676774585	573.242394714641	-4.854961832061068	6.99236641221374	0.9618320610687022	-0.08995502248875561	0.3988005997001499	0.09895052473763118	
1.708950726386001E12	2.293478260869565	-6.478260869565217	2.6630434782608696	3928.205128205128	128.0	128.0	6.975676056823261	21.944087379465984	28.919763436289244	479.2332940379732	573.2477317151704	-4.519083969465648	7.099236641221374	1.1755725190839694	-0.10644677661169415	0.4002998500749625	0.09745127436281859	
1.7089507264055325E12	2.293478260869565	-6.467391304347826	2.630434782608696	3926.7399267399264	128.0	128.0	6.9846912604202345	21.935649148899216	28.92034040931945	479.2330776730869	573.247226863769	-4.519083969465648	6.809160305343511	1.4045801526717556	-0.09895052473763118	0.4002998500749625	0.0944527736131934	
1.708950726425064E12	2.3043478260869565	-6.478260869565217	2.630434782608696	3926.7399267399264	128.0	128.0	6.990821598866177	21.933269135149615	28.924090734015792	479.23459222729116	573.2534293238436	-5.32824427480916	7.022900763358779	1.2366412213740459	-0.095952023988006	0.39730134932533734	0.09745127436281859	
1.7089507264445955E12	2.3260869565217392	-6.489130434782608	2.619565217391304	3920.879120879121	128.0	128.0	6.990460990722298	21.922955742234677	28.913416732956975	479.2348085921775	573.2693682038031	-5.145038167938931	7.206106870229007	0.9007633587786259	-0.0914542728635682	0.39730134932533734	0.09745127436281859	
1.708950726464127E12	2.282608695652174	-6.489130434782608	2.652173913043478	3903.296703296703	128.0	128.0	6.988657950002903	21.922306647575695	28.910964597578598	479.2356740517228	573.2662669737658	-5.526717557251908	7.175572519083969	1.3282442748091603	-0.08995502248875561	0.3913043478260869	0.09295352323838081	
1.7089507264836587E12	2.2717391304347827	-6.489130434782608	2.619565217391304	3928.205128205128	128.0	128.0	6.993490099130881	21.919421782424664	28.912911881555544	479.23769345732853	573.2638869600162	-4.748091603053435	6.931297709923664	1.4045801526717556	-0.08845577211394302	0.38980509745127434	0.11544227886056971	
1.7089507265031902E12	2.260869565217391	-6.489130434782608	2.5760869565217392	3928.205128205128	128.0	128.0	6.985917328109423	21.93492793261146	28.92084526072088	479.23841467361626	573.2682142577427	-4.793893129770992	6.900763358778626	1.2519083969465647	-0.08395802098950525	0.38530734632683655	0.10494752623688156	
1.7089507265227217E12	2.282608695652174	-6.489130434782608	2.5760869565217392	3919.4139194139193	128.0	128.0	6.99111008538128	21.916825403788735	28.907935489170015	479.2377655789573	573.2654736358493	-5.099236641221374	7.312977099236641	1.0229007633587786	-0.08095952023988005	0.39280359820089955	0.10494752623688156	
1.7089507265422532E12	2.260869565217391	-6.5	2.630434782608696	3928.205128205128	128.0	128.0	6.989234923033109	21.9249751478404	28.91421007087351	479.24057832247956	573.2628051355846	-4.229007633587786	6.793893129770992	1.4198473282442747	-0.09745127436281859	0.40629685157421286	0.11394302848575712	
1.7089507265617847E12	2.2717391304347827	-6.478260869565217	2.5978260869565215	3928.205128205128	128.0	128.0	7.005967140909093	21.917979349849148	28.92394649075824	479.2390637682753	573.2566747971385	-4.778625954198473	6.870229007633587	1.618320610687023	-0.08245877061469264	0.3913043478260869	0.095952023988006	
1.7089507265813162E12	2.260869565217391	-6.478260869565217	2.5760869565217392	3926.7399267399264	128.0	128.0	6.996447085910688	21.913363565607497	28.909810651518185	479.2428140929716	573.2767246099382	-5.038167938931298	7.0534351145038165	1.450381679389313	-0.09745127436281859	0.38080959520239877	0.12143928035982009	
1.7089507266008477E12	2.293478260869565	-6.5	2.543478260869565	3928.205128205128	128.0	128.0	6.99832224825886	21.92360483689366	28.921927085152518	479.2423092415702	573.2628051355846	-4.7328244274809155	6.870229007633587	1.083969465648855	-0.10344827586206896	0.39280359820089955	0.0944527736131934	
1.7089507266203792E12	2.282608695652174	-6.489130434782608	2.5869565217391304	3903.296703296703	128.0	128.0	7.000558018750909	21.912858714206067	28.913416732956975	479.244617133691	573.2723251905829	-5.206106870229007	7.297709923664121	1.282442748091603	-0.08395802098950525	0.39280359820089955	0.0944527736131934	
1.7089507266399106E12	2.293478260869565	-6.5	2.5869565217391304	3928.205128205128	128.0	128.0	6.996735572425792	21.919926633826094	28.916662206251885	479.2458432013802	573.2601366353198	-5.893129770992366	7.206106870229007	1.2366412213740459	-0.0914542728635682	0.39280359820089955	0.10194902548725637	
1.7089507266594421E12	2.260869565217391	-6.5	2.5543478260869565	3928.205128205128	128.0	128.0	6.998682856402739	21.951732272116217	28.950415128518955	479.24512198509245	573.2647524195614	-5.1603053435114505	7.145038167938931	1.3435114503816794	-0.08995502248875561	0.38830584707646176	0.095952023988006	
1.7089507266789736E12	2.2391304347826084	-6.478260869565217	2.5543478260869565	3917.948717948718	128.0	128.0	7.027459386284279	22.010727764454817	29.038187150739095	479.2477183637284	573.268430622629	-4.977099236641221	7.0534351145038165	1.282442748091603	-0.0914542728635682	0.39730134932533734	0.09745127436281859	
1.7089507266985051E12	2.260869565217391	-6.456521739130435	2.619565217391304	3928.205128205128	128.0	128.0	7.026882413254072	22.00791502093256	29.034797434186633	479.24678078255425	573.241457133467	-5.1603053435114505	7.083969465648854	1.1603053435114503	-0.08395802098950525	0.38980509745127434	0.10194902548725637	
1.7089507267180366E12	2.25	-6.478260869565217	2.532608695652174	3928.205128205128	128.0	128.0	6.998538613145187	21.929374567195723	28.92791318034091	479.2493050395614	573.266194852137	-5.480916030534351	6.442748091603053	1.0076335877862594	-0.09295352323838081	0.40929535232383807	0.11394302848575712	
1.708950726737568E12	2.2717391304347827	-6.5	2.510869565217391	3926.7399267399264	128.0	128.0	7.0021446945839765	21.900093185912752	28.902237880496727	479.2503147423643	573.2733348933858	-4.549618320610687	6.7328244274809155	0.916030534351145	-0.09745127436281859	0.39430284857571213	0.10644677661169415	
1.7089507267570996E12	2.293478260869565	-6.467391304347826	2.4891304347826084	3928.205128205128	128.0	128.0	6.990821598866177	21.894034969095586	28.884856567961762	479.2508917153945	573.2785997722864	-4.030534351145038	7.068702290076335	0.6717557251908397	-0.07646176911544228	0.39730134932533734	0.0944527736131934	
1.7089507267766313E12	2.2391304347826084	-6.489130434782608	2.510869565217391	3903.296703296703	128.0	128.0	6.989162801404333	21.878168210764912	28.867331012169245	479.2517571749398	573.2796094750893	-3.312977099236641	6.549618320610687	0.9770992366412213	-0.095952023988006	0.4047976011994003	0.1199400299850075	
1.7089507267961628E12	2.2717391304347827	-6.489130434782608	2.5217391304347827	3928.205128205128	128.0	128.0	6.999331951061721	21.85422383001135	28.85355578107307	479.25399294543183	573.3055011398199	-3.2061068702290076	6.381679389312977	0.6412213740458015	-0.08545727136431784	0.383808095952024	0.10344827586206896	
1.7089507268156943E12	2.282608695652174	-6.478260869565217	2.543478260869565	3928.205128205128	128.0	128.0	7.101672542294567	22.525387707398856	29.627060249693425	479.25363233728797	572.8995284914408	-2.4580152671755724	6.412213740458015	0.549618320610687	-0.09895052473763118	0.38980509745127434	0.0944527736131934	
1.7089507268352258E12	2.293478260869565	-6.467391304347826	2.641304347826087	3917.948717948718	128.0	128.0	7.033733967987772	23.27155807871319	30.305292046700963	479.2519735398261	572.3972734686463	-3.312977099236641	6.641221374045801	0.8091603053435115	-0.09295352323838081	0.40629685157421286	0.10344827586206896	
1.7089507268547573E12	2.25	-6.554347826086956	2.282608695652174	3928.205128205128	128.0	128.0	7.080613026692037	21.691445313864392	28.772058340556427	479.25334385077286	573.3499280631457	-4.534351145038168	6.702290076335878	0.732824427480916	-0.09295352323838081	0.39430284857571213	0.10644677661169415	
1.7089507268742888E12	2.1847826086956523	-6.282608695652174	2.967391304347826	3928.205128205128	128.0	128.0	7.098643433885984	21.773303362524913	28.871946796410896	479.2524062695988	573.4012786628341	-0.13740458015267176	6.564885496183206	0.21374045801526717	-0.0914542728635682	0.4002998500749625	0.10794602698650674	
1.7089507268938203E12	2.369565217391304	-6.554347826086956	1.9565217391304348	3926.7399267399264	128.0	128.0	7.0299115216626555	21.885308252013715	28.91521977367637	479.25348809403044	573.3730791059827	-8.687022900763358	5.450381679389313	0.7480916030534351	-0.07646176911544228	0.38980509745127434	0.10494752623688156	
1.7089507269133518E12	2.2391304347826084	-6.3478260869565215	2.760869565217391	3929.6703296703295	128.0	128.0	7.0158478040513765	21.915310849584444	28.93115865363582	479.25291112100024	573.3672372540519	-0.7022900763358778	10.305343511450381	0.9007633587786259	-0.07796101949025487	0.4017991004497751	0.10644677661169415	
1.7089507269328833E12	2.217391304347826	-6.5	2.5	3903.296703296703	128.0	128.0	7.031137589351844	21.94278919014802	28.973926779499863	479.25262263448514	573.3678863487108	-5.038167938931298	6.625954198473282	1.0381679389312977	-0.09295352323838081	0.38830584707646176	0.08845577211394302	
1.7089507269524148E12	2.25	-6.565217391304348	2.4891304347826084	3928.205128205128	128.0	128.0	7.0384939954869745	21.945169203897624	28.983663199384598	479.2511802019096	573.3761803360201	-3.9083969465648853	5.984732824427481	0.9007633587786259	-0.08845577211394302	0.39730134932533734	0.10194902548725637	
1.7089507269719463E12	2.2717391304347827	-6.5	2.5	3928.205128205128	128.0	128.0	7.053062564499684	21.969618436052617	29.0226810005523	479.2506032288794	573.3742330520431	-1.2366412213740459	6.625954198473282	0.8702290076335878	-0.08995502248875561	0.3913043478260869	0.09895052473763118	
1.7089507269914778E12	2.293478260869565	-6.467391304347826	2.4782608695652173	3919.4139194139193	128.0	128.0	7.062438376240538	22.036547307556546	29.098985683797085	479.2485117016449	573.4188763402553	-1.7557251908396947	6.305343511450381	0.9465648854961831	-0.0914542728635682	0.39280359820089955	0.11244377811094453	
1.7089507270110093E12	2.2717391304347827	-6.4021739130434785	2.5	3928.205128205128	128.0	128.0	7.091070662864526	22.082849393230603	29.17392005609513	479.2480068502435	573.4374115988508	-2.6564885496183206	6.442748091603053	0.6717557251908397	-0.08545727136431784	0.3988005997001499	0.095952023988006	
1.7089507270305408E12	2.2717391304347827	-6.423913043478261	2.4456521739130435	3928.205128205128	128.0	128.0	7.156196493649065	22.204013729573933	29.360210223223	479.24764624209956	573.483641562896	-3.297709923664122	5.847328244274809	0.8091603053435115	-0.0914542728635682	0.38980509745127434	0.10494752623688156	
1.7089507270500723E12	2.282608695652174	-6.423913043478261	2.510869565217391	3928.205128205128	128.0	128.0	7.175236603645874	22.30505613148882	29.480292735134693	479.24692502581183	573.4804682112299	-2.778625954198473	5.816793893129771	0.6106870229007634	-0.09895052473763118	0.38980509745127434	0.10194902548725637	
1.708950727069604E12	2.2717391304347827	-6.478260869565217	2.532608695652174	3929.6703296703295	128.0	128.0	7.162903805125214	22.359291596328212	29.522195401453427	479.24706926906936	573.4286848817688	-3.4351145038167936	6.259541984732824	0.42748091603053434	-0.09745127436281859	0.3988005997001499	0.11394302848575712	
1.7089507270891355E12	2.2717391304347827	-6.478260869565217	2.5217391304347827	3901.8315018315016	128.0	128.0	7.113356246156245	22.305416739632697	29.41877298578894	479.24779048535714	573.3520917120089	-3.4351145038167936	6.33587786259542	0.3511450381679389	-0.09745127436281859	0.383808095952024	0.11094452773613193	
1.708950727108667E12	2.282608695652174	-6.5	2.543478260869565	3928.205128205128	128.0	128.0	7.0570292540823525	22.17033292893564	29.22736218301799	479.24541047160756	573.3178339383404	-3.297709923664122	6.458015267175572	0.33587786259541985	-0.08095952023988005	0.3748125937031484	0.10494752623688156	
1.7089507271281985E12	2.2717391304347827	-6.478260869565217	2.5	3928.205128205128	128.0	128.0	6.999115586175393	22.031138185398365	29.030253771573758	479.2471413906982	573.29901019323	-3.709923664122137	6.244274809160305	0.47328244274809156	-0.0914542728635682	0.38530734632683655	0.10194902548725637	
1.70895072714773E12	2.260869565217391	-6.489130434782608	2.619565217391304	3919.4139194139193	128.0	128.0	6.9919034232978134	21.972791787718748	28.96469521101656	479.24706926906936	573.2948992603898	-3.541984732824427	6.519083969465648	0.33587786259541985	-0.09745127436281859	0.3913043478260869	0.11394302848575712	
1.7089507271672615E12	2.2717391304347827	-6.543478260869565	2.3260869565217392	3926.7399267399264	128.0	128.0	6.976685759626122	21.957285637531953	28.933971397158075	479.24735775558446	573.3070156940241	-3.6488549618320607	5.984732824427481	0.4580152671755725	-0.08995502248875561	0.40629685157421286	0.11094452773613193	
1.708950727186793E12	2.25	-6.445652173913043	2.684782608695652	3928.205128205128	128.0	128.0	6.973512407959987	21.960458989198088	28.933971397158075	479.24735775558446	573.318627276257	-2.0	8.732824427480915	0.366412213740458	-0.0914542728635682	0.4002998500749625	0.10494752623688156	
1.7089507272063245E12	2.25	-6.445652173913043	2.4565217391304346	3926.7399267399264	128.0	128.0	6.970771786066507	21.961324448743397	28.932096234809904	479.24706926906936	573.3341334264438	-2.7022900763358777	6.687022900763359	0.564885496183206	-0.08245877061469264	0.3988005997001499	0.1169415292353823	
1.708950727225856E12	2.260869565217391	-6.4021739130434785	2.5217391304347827	3928.205128205128	128.0	128.0	6.9634153799313765	21.968608733249752	28.93202411318113	479.24591532300894	573.3377395078826	-3.0229007633587783	6.152671755725191	0.8854961832061068	-0.08995502248875561	0.38830584707646176	0.09295352323838081	
1.7089507272453875E12	2.2717391304347827	-6.456521739130435	2.5217391304347827	3900.3663003663	128.0	128.0	6.96507417739322	21.97755181521795	28.94262599261117	479.2451941067212	573.3303109801187	-4.33587786259542	6.870229007633587	0.6412213740458015	-0.10044977511244378	0.3988005997001499	0.1169415292353823	
1.708950727264919E12	2.260869565217391	-6.5	2.5652173913043477	3928.205128205128	128.0	128.0	6.965506907165874	21.99175977608678	28.957266683252655	479.2451941067212	573.3333400885273	-4.854961832061068	7.557251908396946	0.5954198473282443	-0.08545727136431784	0.4017991004497751	0.10644677661169415	
1.7089507272844504E12	2.293478260869565	-6.543478260869565	2.532608695652174	3926.7399267399264	128.0	128.0	6.968247529059354	21.995798587298225	28.96404611635758	479.24468925531977	573.3308158315201	-4.65648854961832	7.603053435114504	0.9923664122137404	-0.08245877061469264	0.38080959520239877	0.11394302848575712	
1.708950727303982E12	2.3043478260869565	-6.554347826086956	2.4891304347826084	3917.948717948718	128.0	128.0	6.95959293360626	21.99002885699616	28.94962179060242	479.2451941067212	573.3282194528841	-4.106870229007633	7.893129770992366	0.6412213740458015	-0.08545727136431784	0.38830584707646176	0.10644677661169415	
1.7089507273235134E12	2.282608695652174	-6.478260869565217	2.4891304347826084	3928.205128205128	128.0	128.0	6.959015960576053	21.983826396921444	28.942842357497497	479.2430304578579	573.322810330726	-3.4045801526717554	7.893129770992366	0.41221374045801523	-0.08545727136431784	0.37631184407796103	0.1169415292353823	
1.708950727343045E12	2.260869565217391	-6.489130434782608	2.4456521739130435	3928.205128205128	128.0	128.0	6.95137106792582	21.966372962757703	28.917744030683522	479.2443286471759	573.3229545739836	-3.1908396946564883	6.870229007633587	0.2595419847328244	-0.08395802098950525	0.39280359820089955	0.10494752623688156	
1.7089507273625767E12	2.2282608695652173	-6.456521739130435	2.467391304347826	3928.205128205128	128.0	128.0	6.9534625951603175	21.95851170522114	28.91197430038146	479.2415880252824	573.3153096813334	-2.381679389312977	6.641221374045801	0.5038167938931297	-0.07646176911544228	0.38980509745127434	0.11244377811094453	
1.7089507273821082E12	2.293478260869565	-6.489130434782608	2.5217391304347827	3928.205128205128	128.0	128.0	6.946683162055393	21.96060323245564	28.907286394511033	479.2407225657371	573.3158145327347	-2.0	6.381679389312977	0.21374045801526717	-0.0914542728635682	0.4002998500749625	0.11244377811094453	
1.7089507274016396E12	2.293478260869565	-6.5	2.5543478260869565	3903.296703296703	128.0	128.0	6.936946742170662	21.959954137796657	28.89690087996732	479.2420207550551	573.3241806416727	-1.5419847328244274	6.99236641221374	0.38167938931297707	-0.08845577211394302	0.38530734632683655	0.10794602698650674	
1.7089507274211711E12	2.3152173913043477	-6.5	2.532608695652174	3929.6703296703295	128.0	128.0	6.927931538573687	21.96882509813608	28.896756636709767	479.2403619575932	573.329878250346	-1.129770992366412	6.748091603053435	0.549618320610687	-0.08545727136431784	0.39430284857571213	0.11094452773613193	
1.7089507274407026E12	2.3043478260869565	-6.5	2.510869565217391	3929.6703296703295	128.0	128.0	6.9291576062628755	21.967887516961994	28.89704512322487	479.2389195250177	573.3232430604986	-0.2748091603053435	6.748091603053435	0.366412213740458	-0.08095952023988005	0.4077961019490255	0.08995502248875561	
1.7089507274602341E12	2.293478260869565	-6.456521739130435	2.5	3919.4139194139193	128.0	128.0	6.921007862211211	21.9776960584755	28.898703920686714	479.2387752817602	573.3152375597045	-0.2900763358778626	6.198473282442748	0.48854961832061067	-0.10344827586206896	0.38980509745127434	0.10194902548725637	
1.7089507274797656E12	2.2717391304347827	-6.456521739130435	2.543478260869565	3928.205128205128	128.0	128.0	6.923892727362243	21.965291138326066	28.88918386568831	479.239784984563	573.326993385195	-0.7175572519083969	6.625954198473282	0.07633587786259542	-0.10494752623688156	0.4017991004497751	0.095952023988006	
1.708950727499297E12	2.282608695652174	-6.5	2.5652173913043477	3928.205128205128	128.0	128.0	6.919781794522023	21.967310543931788	28.88709233845381	479.2387752817602	573.3148048299319	-0.8396946564885496	6.259541984732824	-0.015267175572519083	-0.09745127436281859	0.3913043478260869	0.095952023988006	
1.7089507275188286E12	2.293478260869565	-6.478260869565217	2.543478260869565	3928.205128205128	128.0	128.0	6.91999815940835	21.961324448743397	28.88132260815175	479.2387752817602	573.3177618167117	-0.3053435114503817	5.908396946564885	0.07633587786259542	-0.08095952023988005	0.38530734632683655	0.10494752623688156	
1.70895072753836E12	2.25	-6.478260869565217	2.619565217391304	3926.7399267399264	128.0	128.0	6.9243254571348976	21.953607434464388	28.877932891599286	479.23819830873	573.3111266268643	0.12213740458015267	6.1679389312977095	0.22900763358778625	-0.10044977511244378	0.3913043478260869	0.09895052473763118	
1.7089507275578916E12	2.2717391304347827	-6.456521739130435	2.5978260869565215	3909.1575091575087	128.0	128.0	6.928436389975118	21.94639527158681	28.874831661561927	479.2366116328969	573.3104775322054	0.16793893129770993	6.183206106870228	-0.12213740458015267	-0.10344827586206896	0.39280359820089955	0.0944527736131934	
1.708950727577423E12	2.25	-6.478260869565217	2.5869565217391304	3928.205128205128	128.0	128.0	6.909684766493412	21.967166300674236	28.87685106716765	479.2366116328969	573.3177618167117	0.9770992366412213	5.9541984732824424	-0.41221374045801523	-0.09295352323838081	0.39430284857571213	0.10644677661169415	
1.7089507275969546E12	2.293478260869565	-6.543478260869565	2.5217391304347827	3926.7399267399264	128.0	128.0	6.9260563762255165	21.959088678251348	28.885145054476865	479.2357461733516	573.3023277881537	2.0763358778625953	6.076335877862595	-0.5343511450381679	-0.08845577211394302	0.4077961019490255	0.11244377811094453	
1.708950727616486E12	2.3152173913043477	-6.510869565217391	2.619565217391304	3917.948717948718	128.0	128.0	6.9219454433852965	21.965435381583617	28.887380824968915	479.233366159602	573.3084581265996	2.1068702290076335	6.244274809160305	-0.6564885496183206	-0.08995502248875561	0.383808095952024	0.11394302848575712	
1.7089507276360176E12	2.3152173913043477	-6.5	2.6630434782608696	3926.7399267399264	128.0	128.0	6.907737482516466	21.987865208132888	28.895602690649355	479.2324285784279	573.3082417617132	1.5877862595419847	5.938931297709924	-0.7938931297709924	-0.08095952023988005	0.38980509745127434	0.11544227886056971	
1.7089507276555493E12	2.3152173913043477	-6.489130434782608	2.684782608695652	3928.205128205128	128.0	128.0	6.911343563955255	21.98974037048106	28.901083934436315	479.23004856467827	573.3109823836068	1.6793893129770991	6.213740458015267	-0.6259541984732824	-0.09895052473763118	0.38980509745127434	0.0944527736131934	
1.7089507276750808E12	2.3260869565217392	-6.467391304347826	2.684782608695652	3926.7399267399264	128.0	128.0	6.917978753802628	21.980580923626533	28.898559677429162	479.23048129445095	573.3087466131147	0.7022900763358778	6.290076335877862	0.15267175572519084	-0.09295352323838081	0.38830584707646176	0.10644677661169415	
1.7089507276946123E12	2.358695652173913	-6.456521739130435	2.7065217391304346	3926.7399267399264	128.0	128.0	6.9078817257740175	21.989668248852283	28.8975499746263	479.2301206863071	573.3052126533047	0.47328244274809156	6.793893129770992	0.2900763358778626	-0.08845577211394302	0.4002998500749625	0.10494752623688156	
1.7089507277141438E12	2.358695652173913	-6.467391304347826	2.7282608695652173	3903.296703296703	128.0	128.0	6.912209023500565	21.99810647941905	28.910315502919616	479.22846188884523	573.3191321276585	0.030534351145038167	6.6106870229007635	0.12213740458015267	-0.09295352323838081	0.3988005997001499	0.095952023988006	
1.7089507277336753E12	2.3369565217391304	-6.478260869565217	2.7282608695652173	3928.205128205128	128.0	128.0	6.9192048214918165	22.040802483654318	28.960007305146135	479.22903886187544	573.3063665993651	0.183206106870229	6.6106870229007635	0.42748091603053434	-0.07796101949025487	0.39430284857571213	0.08845577211394302	
1.7089507277532068E12	2.3369565217391304	-6.478260869565217	2.7391304347826084	3928.205128205128	128.0	128.0	6.942860715730276	22.106000436067635	29.04886115179791	479.22658672649703	573.3184830329994	0.5190839694656488	6.8396946564885495	0.15267175572519084	-0.08395802098950525	0.4002998500749625	0.09745127436281859	
1.7089507277727383E12	2.3260869565217392	-6.467391304347826	2.760869565217391	3917.948717948718	128.0	128.0	6.951659554440923	22.07938755504937	29.03104710949029	479.22478368577765	573.2896343814891	-0.48854961832061067	6.824427480916031	0.13740458015267176	-0.09895052473763118	0.41079460269865065	0.08995502248875561	
1.7089507277922698E12	2.3152173913043477	-6.489130434782608	2.793478260869565	3928.205128205128	128.0	128.0	6.918483605204059	22.025801184868953	28.944284790073013	479.2238461046036	573.304779923532	-0.916030534351145	6.519083969465648	0.24427480916030533	-0.08995502248875561	0.39430284857571213	0.09295352323838081	
1.7089507278118013E12	2.3152173913043477	-6.456521739130435	2.717391304347826	3929.6703296703295	128.0	128.0	6.905862320168295	22.021618130399958	28.927480450568254	479.2238461046036	573.3064387209939	-0.549618320610687	6.3969465648854955	-0.061068702290076333	-0.095952023988006	0.4002998500749625	0.08995502248875561	
1.7089507278313328E12	2.3369565217391304	-6.489130434782608	2.6956521739130435	3925.274725274725	128.0	128.0	6.901318657555421	22.00459742600887	28.905916083564293	479.2221873071417	573.3018229367523	-0.48854961832061067	6.946564885496183	0.04580152671755725	-0.0914542728635682	0.4047976011994003	0.08995502248875561	
1.7089507278508643E12	2.3369565217391304	-6.478260869565217	2.760869565217391	3928.205128205128	128.0	128.0	6.8965586300562185	22.013107778204414	28.909666408260634	479.2211054827101	573.3042029505018	-0.6717557251908397	6.687022900763359	-0.183206106870229	-0.10494752623688156	0.40629685157421286	0.10644677661169415	
1.7089507278703958E12	2.3152173913043477	-6.5	2.7717391304347827	3912.0879120879117	128.0	128.0	6.91177629372791	21.957790488933384	28.869566782661295	479.22038426642234	573.3391098188293	0.061068702290076333	7.114503816793893	0.030534351145038167	-0.10344827586206896	0.38980509745127434	0.0944527736131934	
1.7089507278899272E12	2.358695652173913	-6.478260869565217	2.7282608695652173	3928.205128205128	128.0	128.0	6.996302842653137	22.652249652415474	29.64855249506861	479.21800425267276	572.7615598155928	0.4580152671755725	6.412213740458015	0.10687022900763359	-0.09745127436281859	0.4017991004497751	0.095952023988006	
1.7089507279094587E12	2.369565217391304	-6.434782608695652	2.902173913043478	3928.205128205128	128.0	128.0	6.984114287390028	23.22698691212975	30.211101199519778	479.2177878877864	572.297961985822	-0.5343511450381679	6.870229007633587	0.2748091603053435	-0.095952023988006	0.39280359820089955	0.10494752623688156	
1.7089507279289902E12	2.358695652173913	-6.510869565217391	2.5217391304347827	3917.948717948718	128.0	128.0	6.993562220759657	21.78159734983413	28.775159570593786	479.21584060380945	573.350793522691	-1.7404580152671756	6.870229007633587	0.24427480916030533	-0.09295352323838081	0.3988005997001499	0.11094452773613193	
1.708950727948522E12	2.3260869565217392	-6.33695652173913	3.358695652173913	3928.205128205128	128.0	128.0	7.001495599924994	21.922811498977126	28.92430709890212	479.21526363077925	573.4089235554843	0.061068702290076333	5.374045801526718	-0.12213740458015267	-0.0914542728635682	0.4002998500749625	0.10494752623688156	
1.7089507279680535E12	2.402173913043478	-6.565217391304348	2.4782608695652173	3929.6703296703295	128.0	128.0	6.949856513721528	21.990461586768816	28.940318100490344	479.2143260496052	573.409644771772	-5.1603053435114505	7.0534351145038165	0.47328244274809156	-0.10044977511244378	0.3913043478260869	0.095952023988006	
1.708950727987585E12	2.380434782608696	-6.413043478260869	2.793478260869565	3926.7399267399264	128.0	128.0	6.936946742170662	22.015127183810137	28.952073925980798	479.2150472658929	573.4116641773778	-0.3053435114503817	10.305343511450381	0.8549618320610687	-0.07796101949025487	0.40929535232383807	0.10344827586206896	
1.7089507280071165E12	2.293478260869565	-6.489130434782608	2.869565217391304	3928.205128205128	128.0	128.0	6.952164405842353	22.029407266307746	28.9815716721501	479.21374907657497	573.4107987178324	-2.854961832061069	7.3893129770992365	1.1603053435114503	-0.09295352323838081	0.40929535232383807	0.10344827586206896	
1.708950728026648E12	2.3152173913043477	-6.532608695652174	2.793478260869565	3900.3663003663	128.0	128.0	6.967598434400372	22.038133983389617	29.00573241778999	479.21115269793904	573.4294060980566	-3.4198473282442747	6.229007633587786	0.9465648854961831	-0.0914542728635682	0.4002998500749625	0.11244377811094453	
1.7089507280461794E12	2.391304347826087	-6.478260869565217	2.760869565217391	3928.205128205128	128.0	128.0	6.979642746405929	22.060419566681336	29.040062313087265	479.2097823869923	573.4383491800248	-0.8091603053435115	6.916030534351145	0.9618320610687022	-0.08545727136431784	0.40929535232383807	0.095952023988006	
1.708950728065711E12	2.369565217391304	-6.478260869565217	2.8043478260869565	3926.7399267399264	128.0	128.0	7.006039262537869	22.107226503756824	29.113265766294692	479.2068254002125	573.5085956464525	-0.8091603053435115	6.625954198473282	0.8702290076335878	-0.07646176911544228	0.4002998500749625	0.08995502248875561	
1.7089507280852424E12	2.3478260869565215	-6.445652173913043	2.8152173913043477	3917.948717948718	128.0	128.0	7.0429655364710735	22.15475465712007	29.19772019359114	479.2037962918039	573.5435025147799	-1.4961832061068703	6.366412213740458	0.9923664122137404	-0.0914542728635682	0.4047976011994003	0.08695652173913043	
1.708950728104774E12	2.3478260869565215	-6.423913043478261	2.7717391304347827	3926.7399267399264	128.0	128.0	7.096984636424141	22.255147964375972	29.35213260080011	479.20220961597084	573.6181484005629	-1.7251908396946565	6.045801526717557	0.8396946564885496	-0.10344827586206896	0.4002998500749625	0.10794602698650674	
1.7089507281243054E12	2.358695652173913	-6.445652173913043	2.8152173913043477	3928.205128205128	128.0	128.0	7.119702949488515	22.34457878405795	29.464281733546464	479.20278658900105	573.6217544820016	-1.8778625954198473	5.770992366412213	0.732824427480916	-0.08245877061469264	0.40929535232383807	0.09895052473763118	
1.708950728143837E12	2.391304347826087	-6.456521739130435	2.8478260869565215	3926.7399267399264	128.0	128.0	7.12424661210139	22.39138572113344	29.51563233323483	479.20177688619816	573.566942044132	-2.5801526717557253	6.442748091603053	0.9465648854961831	-0.08845577211394302	0.39730134932533734	0.09745127436281859	
1.7089507281633684E12	2.369565217391304	-6.478260869565217	2.891304347826087	3928.205128205128	128.0	128.0	7.063952930444829	22.331957499022188	29.395910429467015	479.19982960222126	573.416424204877	-2.564885496183206	6.442748091603053	0.7175572519083969	-0.08845577211394302	0.41079460269865065	0.08395802098950525	
1.7089507281829E12	2.3478260869565215	-6.478260869565217	2.880434782608696	3913.5531135531132	128.0	128.0	7.009501100719107	22.214976217147854	29.22447731786696	479.19881989941837	573.3468989547371	-2.6412213740458013	6.961832061068702	0.9312977099236641	-0.08845577211394302	0.4047976011994003	0.10494752623688156	
1.7089507282024314E12	2.369565217391304	-6.478260869565217	2.880434782608696	3928.205128205128	128.0	128.0	6.953318351902766	22.072824486830772	29.026142838733538	479.19982960222126	573.3022556665248	-2.8396946564885495	6.595419847328244	0.9923664122137404	-0.08545727136431784	0.39430284857571213	0.10644677661169415	
1.7089507282219631E12	2.369565217391304	-6.489130434782608	2.858695652173913	3928.205128205128	128.0	128.0	6.945745580881308	22.022699954831594	28.968445535712902	479.19990172385	573.3000920176617	-2.9770992366412212	6.717557251908397	1.0229007633587786	-0.09295352323838081	0.4017991004497751	0.09295352323838081	
1.7089507282414946E12	2.3043478260869565	-6.521739130434782	2.717391304347826	3917.948717948718	128.0	128.0	6.9393988775490385	21.998178601047826	28.937577478596864	479.19838716964574	573.3031211260702	-3.2519083969465647	6.6106870229007635	1.3587786259541985	-0.10794602698650674	0.40629685157421286	0.09895052473763118	
1.7089507282610261E12	2.293478260869565	-6.478260869565217	3.0869565217391304	3928.205128205128	128.0	128.0	6.945673459252532	22.000774979683754	28.946448438936287	479.19795443987306	573.3043471937594	-1.3587786259541985	7.129770992366412	1.3435114503816794	-0.08245877061469264	0.39430284857571213	0.09895052473763118	
1.7089507282805576E12	2.3152173913043477	-6.478260869565217	2.8260869565217392	3928.205128205128	128.0	128.0	6.943437688760483	22.01079988608359	28.954237574844072	479.1975938317292	573.3078811535694	-3.480916030534351	5.709923664122138	1.0229007633587786	-0.08245877061469264	0.40629685157421286	0.10644677661169415	
1.708950728300089E12	2.3152173913043477	-6.467391304347826	2.8369565217391304	3928.205128205128	128.0	128.0	6.953678960046645	22.00344347994846	28.957122439995103	479.1966562505551	573.3083138833421	-2.396946564885496	7.099236641221374	0.9618320610687022	-0.09745127436281859	0.38830584707646176	0.09895052473763118	
1.7089507283196206E12	2.3478260869565215	-6.467391304347826	2.8369565217391304	3928.205128205128	128.0	128.0	6.9448801213359985	22.019093873392805	28.963973994728804	479.1983150480169	573.3111987484931	-2.946564885496183	6.366412213740458	1.1603053435114503	-0.08395802098950525	0.39280359820089955	0.11244377811094453	
1.708950728339152E12	2.3369565217391304	-6.478260869565217	2.869565217391304	3915.0183150183148	128.0	128.0	6.9548329061070575	22.011737467257674	28.966570373364732	479.19838716964574	573.3107660187204	-3.0229007633587783	7.221374045801526	1.2213740458015268	-0.09295352323838081	0.4017991004497751	0.09295352323838081	
1.7089507283586836E12	2.3369565217391304	-6.489130434782608	2.891304347826087	3928.205128205128	128.0	128.0	6.957862014515641	22.001063466198858	28.9589254807145	479.19889202104713	573.3042029505018	-3.450381679389313	7.3893129770992365	0.9770992366412213	-0.09745127436281859	0.39430284857571213	0.10344827586206896	
1.708950728378215E12	2.3478260869565215	-6.478260869565217	2.8260869565217392	3926.7399267399264	128.0	128.0	6.958655352432174	21.999765276880893	28.958420629313068	479.1990362643047	573.3049241667896	-3.480916030534351	7.206106870229007	0.8702290076335878	-0.10644677661169415	0.41079460269865065	0.10794602698650674	
1.7089507283977466E12	2.3260869565217392	-6.489130434782608	2.880434782608696	3917.948717948718	128.0	128.0	6.959376568719932	21.981879112944497	28.94125568166443	479.19982960222126	573.3032653693277	-4.351145038167939	7.358778625954198	1.1908396946564885	-0.09895052473763118	0.41079460269865065	0.09745127436281859	
1.708950728417278E12	2.3260869565217392	-6.478260869565217	2.8152173913043477	3926.7399267399264	128.0	128.0	6.957501406371762	21.968680854878528	28.92618226125029	479.20011808873636	573.2936731927006	-5.2824427480916025	7.450381679389313	1.0381679389312977	-0.08995502248875561	0.4017991004497751	0.08845577211394302	
1.7089507284368096E12	2.3152173913043477	-6.445652173913043	2.8260869565217392	3928.205128205128	128.0	128.0	6.962766285272394	21.96485840855341	28.927624693825805	479.2007671833953	573.2905719626632	-5.1603053435114505	7.557251908396946	1.0229007633587786	-0.09295352323838081	0.40929535232383807	0.10644677661169415	
1.708950728456341E12	2.3478260869565215	-6.467391304347826	2.8260869565217392	3926.7399267399264	128.0	128.0	6.956347460311349	21.94055341965597	28.89690087996732	479.20192112945574	573.2951156252761	-5.206106870229007	7.267175572519084	1.2671755725190839	-0.08845577211394302	0.4077961019490255	0.10494752623688156	
1.7089507284758726E12	2.358695652173913	-6.510869565217391	2.880434782608696	3926.7399267399264	128.0	128.0	6.960025663378914	21.94653951484436	28.906565178223275	479.20336356203126	573.2951877469048	-5.404580152671755	7.312977099236641	0.9465648854961831	-0.09745127436281859	0.3913043478260869	0.09895052473763118	
1.708950728495404E12	2.3152173913043477	-6.532608695652174	2.8260869565217392	3917.948717948718	128.0	128.0	6.951659554440923	21.94776558253355	28.89942513697447	479.20487811623553	573.2893458949741	-6.091603053435114	7.2824427480916025	1.0381679389312977	-0.08395802098950525	0.39280359820089955	0.10194902548725637	
1.7089507285149358E12	2.3369565217391304	-6.510869565217391	2.8043478260869565	3926.7399267399264	128.0	128.0	6.949568027206425	21.93680309495963	28.886371122166054	479.2053108460082	573.2904277194057	-5.099236641221374	6.916030534351145	0.8549618320610687	-0.095952023988006	0.41079460269865065	0.11544227886056971	
1.7089507285344673E12	2.3478260869565215	-6.489130434782608	2.7717391304347827	3928.205128205128	128.0	128.0	6.955626244023591	21.93110548628634	28.886731730309933	479.20660903532615	573.2910768140647	-5.755725190839694	6.946564885496183	1.0534351145038168	-0.08995502248875561	0.40929535232383807	0.09895052473763118	
1.7089507285539988E12	2.3478260869565215	-6.445652173913043	2.8260869565217392	3917.948717948718	128.0	128.0	6.953390473531542	21.928941837423068	28.88233231095461	479.20906117070456	573.2842973809597	-6.076335877862595	6.793893129770992	0.7022900763358778	-0.10044977511244378	0.3988005997001499	0.09895052473763118	
1.7089507285735303E12	2.3260869565217392	-6.489130434782608	2.8260869565217392	3928.205128205128	128.0	128.0	6.968031164173027	21.914733876554237	28.882765040727264	479.2086284409319	573.2804749346346	-6.33587786259542	6.7328244274809155	0.8244274809160305	-0.0914542728635682	0.4002998500749625	0.09745127436281859	
1.7089507285930618E12	2.3260869565217392	-6.489130434782608	2.793478260869565	3926.7399267399264	128.0	128.0	6.969040866975888	21.90954111928238	28.87858198625827	479.21043148165126	573.2799700832331	-6.183206106870228	6.641221374045801	1.0076335877862594	-0.095952023988006	0.39730134932533734	0.10794602698650674	
1.7089507286125933E12	2.3260869565217392	-6.467391304347826	2.75	3926.7399267399264	128.0	128.0	6.961756582469533	21.92086421500018	28.882620797469713	479.2122345223707	573.2863889081942	-5.603053435114504	6.595419847328244	1.1603053435114503	-0.10344827586206896	0.4002998500749625	0.0944527736131934	
1.7089507286321248E12	2.3152173913043477	-6.489130434782608	2.7391304347826084	3926.7399267399264	128.0	128.0	6.969401475119767	21.900742280571734	28.8701437556915	479.21317210354476	573.280330691377	-6.0	6.763358778625954	1.2061068702290076	-0.09295352323838081	0.3988005997001499	0.10344827586206896	
1.7089507286516562E12	2.3043478260869565	-6.5	2.7282608695652173	3903.296703296703	128.0	128.0	6.969545718377319	21.900598037314182	28.8701437556915	479.2133884684311	573.2848022323611	-6.152671755725191	6.290076335877862	1.0381679389312977	-0.08995502248875561	0.4017991004497751	0.11394302848575712	
1.7089507286711877E12	2.3260869565217392	-6.5	2.7282608695652173	3928.205128205128	128.0	128.0	6.967959042544251	21.901030767086837	28.86898980963109	479.21468665774904	573.2905719626632	-5.862595419847328	6.473282442748092	1.2671755725190839	-0.08545727136431784	0.38830584707646176	0.08845577211394302	
1.7089507286907192E12	2.3260869565217392	-6.478260869565217	2.717391304347826	3925.274725274725	128.0	128.0	6.968247529059354	21.900886523829286	28.86913405288864	479.2189418338468	573.2894901382316	-5.893129770992366	6.687022900763359	0.9770992366412213	-0.08395802098950525	0.4002998500749625	0.10494752623688156	
1.7089507287102507E12	2.3369565217391304	-6.489130434782608	2.717391304347826	3916.4835164835163	128.0	128.0	6.972214218642023	21.89223192837619	28.864446147018214	479.21800425267276	573.2700894200909	-5.129770992366412	7.0534351145038165	0.9312977099236641	-0.08845577211394302	0.39730134932533734	0.10494752623688156	
1.7089507287297822E12	2.3369565217391304	-6.489130434782608	2.7065217391304346	3900.3663003663	128.0	128.0	6.967742677657924	21.886894927846782	28.854637605504706	479.21879759058925	573.2798979616044	-5.374045801526718	7.0534351145038165	1.1908396946564885	-0.08245877061469264	0.38830584707646176	0.10344827586206896	
1.7089507287493137E12	2.3369565217391304	-6.489130434782608	2.684782608695652	3928.205128205128	128.0	128.0	6.969834204892422	21.880476102885737	28.85031030777816	479.22081699619497	573.2819894888389	-4.99236641221374	6.564885496183206	1.2061068702290076	-0.08995502248875561	0.38830584707646176	0.10644677661169415	
1.7089507287688452E12	2.3478260869565215	-6.478260869565217	2.7065217391304346	3928.205128205128	128.0	128.0	6.974954840535503	21.87665365656062	28.851608497096123	479.2204563880511	573.2699451768333	-4.458015267175572	7.022900763358779	1.0687022900763359	-0.07496251874062969	0.40629685157421286	0.10644677661169415	
1.7089507287883767E12	2.3152173913043477	-6.510869565217391	2.7282608695652173	3928.205128205128	128.0	128.0	6.961900825727085	21.885164008756163	28.84706483448325	479.22391822623234	573.2770852180821	-5.145038167938931	6.65648854961832	1.0229007633587786	-0.08995502248875561	0.40629685157421286	0.10644677661169415	
1.7089507288079084E12	2.3260869565217392	-6.478260869565217	2.684782608695652	3917.948717948718	128.0	128.0	6.975892421709588	21.865474804100373	28.84136722580996	479.22391822623234	573.2735512582722	-5.206106870229007	7.175572519083969	1.2671755725190839	-0.09895052473763118	0.4047976011994003	0.0944527736131934	
1.70895072882744E12	2.3152173913043477	-6.467391304347826	2.684782608695652	3929.6703296703295	128.0	128.0	6.979426381519602	21.89086161742945	28.870287998949053	479.22593763183806	573.280691299521	-5.007633587786259	6.65648854961832	0.9618320610687022	-0.10494752623688156	0.40629685157421286	0.10344827586206896	
1.7089507288469714E12	2.3369565217391304	-6.456521739130435	2.6739130434782608	3928.205128205128	128.0	128.0	6.978056070572862	21.93521641912656	28.913272489699423	479.2276685509287	573.272974285242	-4.229007633587786	7.038167938931298	1.0229007633587786	-0.08995502248875561	0.3913043478260869	0.095952023988006	
1.708950728866503E12	2.3260869565217392	-6.456521739130435	2.6630434782608696	3917.948717948718	128.0	128.0	6.991687058411486	21.986711262072475	28.97839832048396	479.22889461861786	573.2675651630838	-4.351145038167939	6.931297709923664	1.2213740458015268	-0.09295352323838081	0.3913043478260869	0.11094452773613193	
1.7089507288860344E12	2.3152173913043477	-6.456521739130435	2.7065217391304346	3928.205128205128	128.0	128.0	6.995797991251706	21.882423386862683	28.87822137811439	479.2299764430495	573.2820616104676	-4.427480916030534	6.564885496183206	0.6717557251908397	-0.095952023988006	0.38980509745127434	0.10494752623688156	
1.708950728905566E12	2.3043478260869565	-6.489130434782608	2.641304347826087	3928.205128205128	128.0	128.0	6.955698365652367	21.882279143605132	28.8379775092575	479.23192372702647	573.2721809473254	-5.038167938931298	6.702290076335878	1.0534351145038168	-0.09895052473763118	0.4047976011994003	0.0944527736131934	
1.7089507289250974E12	2.3043478260869565	-6.456521739130435	2.608695652173913	3926.7399267399264	128.0	128.0	6.96146809595443	21.85458443815523	28.81605253410966	479.23228433517033	573.2884083137999	-4.534351145038168	7.038167938931298	0.9007633587786259	-0.08545727136431784	0.39430284857571213	0.095952023988006	
1.708950728944629E12	2.3260869565217392	-6.5	2.6630434782608696	3928.205128205128	128.0	128.0	6.962910528529946	21.8338134090678	28.796723937597747	479.23473647054874	573.2842973809597	-3.9541984732824424	6.900763358778626	0.6259541984732824	-0.09295352323838081	0.3988005997001499	0.10644677661169415	
1.7089507289641604E12	2.3043478260869565	-6.467391304347826	2.619565217391304	3919.4139194139193	128.0	128.0	6.9706275428089555	21.80936417691281	28.779991719721764	479.23372676774585	573.3008132339494	-3.5725190839694654	6.290076335877862	1.0076335877862594	-0.09295352323838081	0.4017991004497751	0.09295352323838081	
1.708950728983692E12	2.3478260869565215	-6.489130434782608	2.5760869565217392	3926.7399267399264	128.0	128.0	7.042460685069643	21.790107702029673	28.832568387099315	479.23459222729116	573.3650736051886	-2.6412213740458013	6.824427480916031	0.8396946564885496	-0.09895052473763118	0.39730134932533734	0.11244377811094453	
1.7089507290032234E12	2.3369565217391304	-6.510869565217391	2.717391304347826	3926.7399267399264	128.0	128.0	6.969762083263646	23.334736625520783	30.30449870878443	479.2353855652077	572.3318591513466	-2.427480916030534	6.5038167938931295	1.0381679389312977	-0.0914542728635682	0.4047976011994003	0.09745127436281859	
1.708950729022755E12	2.3260869565217392	-6.5	2.7282608695652173	3917.948717948718	128.0	128.0	7.00430834344725	22.09236944822901	29.09667779167626	479.2345201056624	572.9730925527922	-3.0229007633587783	6.687022900763359	1.1450381679389312	-0.095952023988006	0.39280359820089955	0.08695652173913043	
1.7089507290422864E12	2.3043478260869565	-6.521739130434782	2.282608695652174	3900.3663003663	128.0	128.0	7.093883406386782	21.60965938683264	28.703542793219423	479.2366116328969	573.4294060980566	-4.595419847328244	5.908396946564885	0.7633587786259541	-0.08995502248875561	0.39430284857571213	0.10644677661169415	
1.7089507290618179E12	2.25	-6.413043478260869	2.9456521739130435	3926.7399267399264	128.0	128.0	7.007121086969506	21.83330855766637	28.840429644635876	479.23617890312426	573.3981774327967	-1.3129770992366412	7.022900763358779	0.42748091603053434	-0.0914542728635682	0.4077961019490255	0.11244377811094453	
1.7089507290813494E12	2.358695652173913	-6.445652173913043	2.402173913043478	3925.274725274725	128.0	128.0	6.999331951061721	21.839078287968434	28.838410239030154	479.23899164664647	573.3924077024947	-8.366412213740457	5.465648854961832	0.9312977099236641	-0.09295352323838081	0.3988005997001499	0.10344827586206896	
1.708950729100881E12	2.282608695652174	-6.445652173913043	2.5978260869565215	3929.6703296703295	128.0	128.0	7.00704896534073	21.86792693947875	28.87497590481948	479.23819830873	573.3906046617752	-1.5877862595419847	9.34351145038168	0.9923664122137404	-0.08845577211394302	0.3823088455772114	0.10794602698650674	
1.7089507291204126E12	2.2391304347826084	-6.543478260869565	2.7717391304347827	3919.4139194139193	128.0	128.0	7.011881114468708	21.883649454551872	28.89553056902058	479.23668375452564	573.3867822154501	-5.435114503816794	6.763358778625954	0.8244274809160305	-0.09895052473763118	0.3823088455772114	0.10494752623688156	
1.708950729139944E12	2.3260869565217392	-6.576086956521739	2.543478260869565	3915.0183150183148	128.0	128.0	7.020463588293027	21.92511939109795	28.945582979390977	479.2360346598667	573.4017113926067	-5.969465648854961	5.435114503816794	1.0687022900763359	-0.08995502248875561	0.3988005997001499	0.11094452773613193	
1.7089507291594756E12	2.3152173913043477	-6.5	2.641304347826087	3928.205128205128	128.0	128.0	7.041450982266782	21.939110987080454	28.980561969347235	479.2365395112681	573.4136835829835	-2.5343511450381677	6.030534351145038	0.7938931297709924	-0.0914542728635682	0.38980509745127434	0.09745127436281859	
1.708950729179007E12	2.3152173913043477	-6.467391304347826	2.5760869565217392	3916.4835164835163	128.0	128.0	7.064746268361363	21.974594828438143	29.039341096799507	479.2360346598667	573.4337333957832	-2.9923664122137406	6.137404580152672	0.8702290076335878	-0.08845577211394302	0.39280359820089955	0.10494752623688156	
1.7089507291985386E12	2.3260869565217392	-6.413043478260869	2.619565217391304	3901.8315018315016	128.0	128.0	7.103908312786617	22.066766270013602	29.17067458280022	479.2379098222149	573.4950367802426	-3.6030534351145036	6.1679389312977095	1.0687022900763359	-0.09895052473763118	0.38980509745127434	0.09745127436281859	
1.70895072921807E12	2.3152173913043477	-6.467391304347826	2.608695652173913	3928.205128205128	128.0	128.0	7.139175789257979	22.173289915715447	29.312465704973427	479.23697224104075	573.4964070911893	-4.045801526717557	6.061068702290076	0.7786259541984732	-0.08845577211394302	0.4047976011994003	0.11544227886056971	
1.7089507292376016E12	2.3152173913043477	-6.434782608695652	2.630434782608696	3928.205128205128	128.0	128.0	7.171991130350963	22.280390534447495	29.45238166479846	479.23855891687384	573.4710202778602	-3.282442748091603	5.923664122137405	0.6259541984732824	-0.095952023988006	0.39730134932533734	0.10494752623688156	
1.708950729257133E12	2.3369565217391304	-6.478260869565217	2.641304347826087	3928.205128205128	128.0	128.0	7.136435167364499	22.277938399069118	29.414373566433618	479.2387752817602	573.4154866237029	-3.8625954198473282	5.984732824427481	0.38167938931297707	-0.10494752623688156	0.38830584707646176	0.09895052473763118	
1.7089507292766646E12	2.3478260869565215	-6.467391304347826	2.6630434782608696	3903.296703296703	128.0	128.0	7.046211009765984	22.11227501777113	29.158486027537112	479.24000134944936	573.344014089586	-3.7557251908396947	6.473282442748092	0.33587786259541985	-0.07346326836581708	0.39280359820089955	0.10794602698650674	
1.708950729296196E12	2.3478260869565215	-6.489130434782608	2.641304347826087	3926.7399267399264	128.0	128.0	7.007409573484609	21.996375560328435	29.003785133813043	479.24122741713853	573.3225218442109	-3.5725190839694654	6.213740458015267	0.732824427480916	-0.08995502248875561	0.383808095952024	0.10344827586206896	
1.7089507293157275E12	2.3369565217391304	-6.478260869565217	2.6630434782608696	3928.205128205128	128.0	128.0	6.978056070572862	21.891077982315778	28.86913405288864	479.2421649983126	573.3236036686425	-3.2061068702290076	6.106870229007633	0.48854961832061067	-0.10344827586206896	0.4077961019490255	0.11244377811094453	
