"sep=	"
Shimmer_6D72_TimestampSync_Unix_CAL	Shimmer_6D72_Accel_LN_X_CAL	Shimmer_6D72_Accel_LN_Y_CAL	Shimmer_6D72_Accel_LN_Z_CAL	Shimmer_6D72_Battery_CAL	Shimmer_6D72_ECG_EMG_Status1_CAL	Shimmer_6D72_ECG_EMG_Status2_CAL	Shimmer_6D72_ECG_LA-RA_24BIT_CAL	Shimmer_6D72_ECG_LL-LA_24BIT_CAL	Shimmer_6D72_ECG_LL-RA_24BIT_CAL	Shimmer_6D72_ECG_RESP_24BIT_CAL	Shimmer_6D72_ECG_Vx-RL_24BIT_CAL	Shimmer_6D72_Gyro_X_CAL	Shimmer_6D72_Gyro_Y_CAL	Shimmer_6D72_Gyro_Z_CAL	Shimmer_6D72_Mag_X_CAL	Shimmer_6D72_Mag_Y_CAL	Shimmer_6D72_Mag_Z_CAL	
ms	m/(s^2)	m/(s^2)	m/(s^2)	mV	no_units	no_units	mV	mV	mV	mV	mV	deg/s	deg/s	deg/s	local_flux	local_flux	local_flux	
1.7089486468010715E12	2.25	-6.3478260869565215	3.619565217391304	3925.274725274725	128.0	128.0	-0.987994192599558	9.820297338998001	8.832303146398443	500.71133145229004	134.65389366792365	-0.7480916030534351	5.465648854961832	0.6564885496183206	-0.041979010494752625	0.42278860569715143	0.07946026986506746	
1.7089486468206033E12	2.2717391304347827	-6.304347826086956	3.641304347826087	3951.6483516483513	128.0	128.0	-0.9521497430979899	9.891697751486035	8.939548008388044	500.70887931691163	134.63766630144912	-1.2366412213740459	6.99236641221374	0.9618320610687022	-0.04047976011994003	0.43178410794602695	0.07496251874062969	
1.708948646840135E12	2.25	-6.293478260869565	3.6739130434782608	3951.6483516483513	128.0	128.0	-0.9150792259072336	9.922493686973295	9.007414461066062	500.70592233013184	134.65764399262	-1.816793893129771	6.427480916030534	1.0534351145038168	-0.034482758620689655	0.4257871064467766	0.08695652173913043	
1.7089486468596665E12	2.260869565217391	-6.315217391304348	3.6956521739130435	3942.8571428571427	128.0	128.0	-0.9333981196162844	9.934465877350078	9.001067757733793	500.69842168073916	134.65901430356675	-2.9618320610687023	6.549618320610687	0.916030534351145	-0.046476761619190406	0.4287856071964018	0.07646176911544228	
1.7089486468791982E12	2.260869565217391	-6.369565217391304	3.717391304347826	3923.8095238095234	128.0	128.0	-0.959722514119448	9.892563211031344	8.932840696911896	500.70282110009447	134.65237911371938	-3.1908396946564883	6.519083969465648	0.8549618320610687	-0.031484257871064465	0.42278860569715143	0.07646176911544228	
1.70894864689873E12	2.282608695652174	-6.413043478260869	3.7717391304347827	3950.18315018315	128.0	128.0	-1.0036445860439047	9.812147594946337	8.808503008902433	500.70209988380674	134.50712615336494	-3.16030534351145	7.038167938931298	0.732824427480916	-0.04047976011994003	0.4197901049475262	0.07796101949025487	
1.7089486469182617E12	2.282608695652174	-6.369565217391304	3.7282608695652173	3948.7179487179483	128.0	128.0	-1.0370369001670958	9.754810900069582	8.717773999902487	500.7093841683131	134.68382414386562	-2.8091603053435112	6.625954198473282	0.47328244274809156	-0.029985007496251874	0.43178410794602695	0.06746626686656672	
1.7089486469377935E12	2.260869565217391	-6.380434782608695	3.652173913043478	3951.6483516483513	128.0	128.0	-1.0463405902791727	9.72726043787723	8.680919847598059	500.70750900596494	134.52277654680927	-3.0534351145038165	6.6106870229007635	0.6412213740458015	-0.041979010494752625	0.42278860569715143	0.06896551724137931	
1.708948646957325E12	2.2391304347826084	-6.358695652173913	3.7065217391304346	3926.7399267399264	128.0	128.0	-1.0513169826647024	9.711826409319212	8.66050942665451	500.7048405057002	134.68360777897928	-2.2900763358778624	7.2824427480916025	0.5343511450381679	-0.034482758620689655	0.43628185907046474	0.07646176911544228	
1.7089486469768567E12	2.260869565217391	-6.271739130434782	3.6304347826086953	3951.6483516483513	128.0	128.0	-1.0532642666416487	9.722716775264356	8.669452508622708	500.7051289922153	134.5816999175191	-1.3129770992366412	6.5038167938931295	0.8396946564885496	-0.05397301349325337	0.4332833583208396	0.07346326836581708	
1.7089486469963884E12	2.2065217391304346	-6.358695652173913	3.760869565217391	3951.6483516483513	128.0	128.0	-1.0412199546360916	9.72863074882397	8.68741079418788	500.7067156680484	134.73445352726623	-3.7557251908396947	8.412213740458014	1.1450381679389312	-0.037481259370314844	0.43928035982008995	0.08095952023988005	
1.7089486470159202E12	2.282608695652174	-6.369565217391304	3.652173913043478	3941.391941391941	128.0	128.0	-1.0348011296750463	9.724952545756405	8.69015141608136	500.7102496278584	134.57528109255804	-4.076335877862595	7.312977099236641	1.0687022900763359	-0.034482758620689655	0.4257871064467766	0.08395802098950525	
1.708948647035452E12	2.282608695652174	-6.3478260869565215	3.7717391304347827	3950.18315018315	128.0	128.0	-1.0387678192577148	9.73447260075481	8.695704781497096	500.7072926410786	134.46305983818291	-3.0534351145038165	8.015267175572518	0.8854961832061068	-0.03298350824587706	0.43178410794602695	0.07796101949025487	
1.7089486470549834E12	2.260869565217391	-6.380434782608695	3.760869565217391	3950.18315018315	128.0	128.0	-1.0298247372895166	9.72726043787723	8.697435700587715	500.6977725860802	134.59828789213753	-3.5572519083969465	8.580152671755725	0.5343511450381679	-0.038980509745127435	0.4257871064467766	0.07946026986506746	
1.7089486470745151E12	2.25	-6.391304347826087	3.717391304347826	3950.18315018315	128.0	128.0	-1.016265871079668	9.730217424657038	8.71395155357737	500.7058502085031	134.5036643151837	-3.541984732824427	8.839694656488549	0.8854961832061068	-0.04047976011994003	0.424287856071964	0.08095952023988005	
1.7089486470940469E12	2.2391304347826084	-6.3478260869565215	3.6956521739130435	3950.18315018315	128.0	128.0	-1.0329980889556514	9.731155005831123	8.698156916875472	500.7028932217233	134.63002140879888	-3.5877862595419847	8.396946564885496	1.297709923664122	-0.03298350824587706	0.416791604197901	0.095952023988006	
1.7089486471135786E12	2.2282608695652173	-6.3478260869565215	3.652173913043478	3926.7399267399264	128.0	128.0	-1.0226846960407134	9.723365869923338	8.700681173882625	500.70765324922246	134.4702720010605	-3.801526717557252	6.916030534351145	1.1603053435114503	-0.046476761619190406	0.43628185907046474	0.08995502248875561	
1.70894864713311E12	2.2282608695652173	-6.3478260869565215	3.717391304347826	3922.344322344322	128.0	128.0	-1.0347290080462705	9.722356167120477	8.687627159074207	500.7166684528194	134.63795478796422	-3.9541984732824424	8.030534351145038	1.2061068702290076	-0.04947526236881559	0.43628185907046474	0.0944527736131934	
1.7089486471526418E12	2.260869565217391	-6.4021739130434785	3.7065217391304346	3950.18315018315	128.0	128.0	-1.0319883861527903	9.734328357497258	8.702339971344468	500.7172454258496	134.4801526642028	-4.076335877862595	7.709923664122137	0.9770992366412213	-0.041979010494752625	0.42278860569715143	0.07646176911544228	
1.7089486471721736E12	2.2391304347826084	-6.380434782608695	3.7065217391304346	3941.391941391941	128.0	128.0	-1.0348732513038221	9.735770790072774	8.700897538768952	500.7131344930094	134.6251892596709	-3.5267175572519083	7.908396946564885	1.0229007633587786	-0.034482758620689655	0.4287856071964018	0.07946026986506746	
1.7089486471917053E12	2.25	-6.391304347826087	3.652173913043478	3951.6483516483513	128.0	128.0	-1.032132629410342	9.728198019051316	8.696065389640975	500.70498474895777	134.4720750417799	-3.679389312977099	7.98473282442748	1.1908396946564885	-0.04047976011994003	0.43478260869565216	0.08095952023988005	
1.708948647211237E12	2.2391304347826084	-6.369565217391304	3.6630434782608696	3950.18315018315	128.0	128.0	-1.0186458848292692	9.709590638827162	8.690944753997893	500.69885441051184	134.50885707245556	-3.32824427480916	7.648854961832061	0.8091603053435115	-0.037481259370314844	0.43928035982008995	0.08845577211394302	
1.7089486472307686E12	2.2282608695652173	-6.304347826086956	3.6739130434782608	3950.18315018315	128.0	128.0	-1.0201604390335608	9.717451896363723	8.697291457330163	500.69842168073916	134.45541494553268	-4.122137404580153	7.450381679389313	0.7633587786259541	-0.041979010494752625	0.4287856071964018	0.08395802098950525	
1.7089486472503003E12	2.25	-6.3478260869565215	3.684782608695652	3951.6483516483513	128.0	128.0	-1.0107125056639321	9.746661156017918	8.735948650353986	500.6895507203997	134.49609154416223	-4.366412213740458	7.267175572519084	0.6870229007633587	-0.04047976011994003	0.4422788605697151	0.07796101949025487	
1.708948647269832E12	2.2391304347826084	-6.380434782608695	3.7065217391304346	3926.7399267399264	128.0	128.0	-0.9775365564270684	9.750844210486916	8.773307654059847	500.7003689647161	134.43889909254304	-4.717557251908397	7.2824427480916025	0.8091603053435115	-0.05547226386806597	0.42728635682158916	0.07496251874062969	
1.7089486472893638E12	2.25	-6.369565217391304	3.684782608695652	3923.8095238095234	128.0	128.0	-0.9701801502919377	9.751204818630795	8.781024668338857	500.7058502085031	134.5027267340096	-4.33587786259542	7.2824427480916025	0.6870229007633587	-0.04497751124437781	0.43178410794602695	0.08845577211394302	
1.7089486473088955E12	2.25	-6.369565217391304	3.717391304347826	3951.6483516483513	128.0	128.0	-0.9972257610828592	9.790799592828703	8.793573831745844	500.70765324922246	134.47301262295397	-4.6106870229007635	6.763358778625954	0.7938931297709924	-0.04947526236881559	0.4287856071964018	0.06896551724137931	
1.708948647328427E12	2.217391304347826	-6.369565217391304	3.6956521739130435	3941.391941391941	128.0	128.0	-1.01280403289843	9.754089683781825	8.741285650883395	500.70383080289736	134.50352007192615	-4.519083969465648	6.885496183206107	0.7633587786259541	-0.038980509745127435	0.4287856071964018	0.08695652173913043	
1.7089486473479587E12	2.2282608695652173	-6.358695652173913	3.641304347826087	3951.6483516483513	128.0	128.0	-1.0203046822911124	9.733246533065621	8.71294185077451	500.7059944517606	134.6538215462949	-5.022900763358779	6.99236641221374	0.8396946564885496	-0.041979010494752625	0.4257871064467766	0.08395802098950525	
1.7089486473674905E12	2.25	-6.358695652173913	3.641304347826087	3950.18315018315	128.0	128.0	-1.03833508948506	9.751998156547327	8.713663067062267	500.71399995255473	134.48476844844444	-5.374045801526718	6.305343511450381	0.9312977099236641	-0.041979010494752625	0.41079460269865065	0.08395802098950525	
1.7089486473870222E12	2.2282608695652173	-6.33695652173913	3.6739130434782608	3950.18315018315	128.0	128.0	-1.0451145225899843	9.748103588593434	8.70298906600345	500.7116920604339	134.65180214068917	-5.083969465648854	6.3969465648854955	0.8854961832061068	-0.037481259370314844	0.43178410794602695	0.08095952023988005	
1.7089486474065537E12	2.2717391304347827	-6.369565217391304	3.6630434782608696	3950.18315018315	128.0	128.0	-1.055572158762474	9.74954602116895	8.693973862406477	500.69885441051184	134.49623578741978	-5.1603053435114505	6.748091603053435	0.732824427480916	-0.047976011994003	0.4452773613193403	0.09295352323838081	
1.7089486474260854E12	2.282608695652174	-6.4021739130434785	3.652173913043478	3925.274725274725	128.0	128.0	-0.9921772470685539	9.825562217898634	8.83338497083008	500.6949598425579	134.6489893971669	-5.068702290076335	7.206106870229007	0.9770992366412213	-0.04047976011994003	0.43178410794602695	0.07796101949025487	
1.7089486474456172E12	2.2717391304347827	-6.423913043478261	3.6739130434782608	3950.18315018315	128.0	128.0	-0.7348472755965324	10.235934285632883	9.50108701003635	500.7137114660396	134.39526550713367	-4.702290076335878	6.916030534351145	1.0076335877862594	-0.046476761619190406	0.4407796101949025	0.08695652173913043	
1.708948647465149E12	2.3478260869565215	-6.33695652173913	3.369565217391304	3950.18315018315	128.0	128.0	-1.026579263994606	9.756686062417753	8.730106798423147	500.7158029932741	134.66954406136801	-4.259541984732825	4.458015267175572	0.9312977099236641	-0.034482758620689655	0.43628185907046474	0.08995502248875561	
1.7089486474846807E12	2.0869565217391304	-6.380434782608695	3.9891304347826084	3941.391941391941	128.0	128.0	-1.030690196834826	9.81842217664983	8.787731979815005	500.7057059652455	134.7324341216605	-6.198473282442748	8.274809160305344	0.1984732824427481	-0.041979010494752625	0.43628185907046474	0.08995502248875561	
1.7089486475042122E12	2.3152173913043477	-6.413043478260869	3.4565217391304346	3950.18315018315	128.0	128.0	-1.0220356013817313	9.81568155475635	8.79364595337462	500.72056302077334	134.67329438606436	-4.763358778625954	7.083969465648854	0.6412213740458015	-0.03298350824587706	0.4197901049475262	0.095952023988006	
1.708948647523744E12	2.293478260869565	-6.380434782608695	3.6304347826086953	3950.18315018315	128.0	128.0	-1.040715103234661	9.834577421495608	8.793862318260947	500.7096726548282	134.7186588905643	-3.4351145038167936	9.49618320610687	0.9770992366412213	-0.046476761619190406	0.4287856071964018	0.0944527736131934	
1.7089486475432756E12	2.2065217391304346	-6.315217391304348	3.608695652173913	3950.18315018315	128.0	128.0	-1.0435999683856927	9.86948428982309	8.825884321437398	500.71753391236473	134.63925297728218	-2.6564885496183206	9.32824427480916	1.5725190839694656	-0.05397301349325337	0.4257871064467766	0.09745127436281859	
1.7089486475628074E12	2.1956521739130435	-6.434782608695652	3.619565217391304	3950.18315018315	128.0	128.0	-1.0234780339572471	9.856790883158551	8.833312849201304	500.71363934441086	134.69392117189423	-6.198473282442748	7.603053435114504	1.3435114503816794	-0.04497751124437781	0.42728635682158916	0.08095952023988005	
1.708948647582339E12	2.2065217391304346	-6.445652173913043	3.6739130434782608	3923.8095238095234	128.0	128.0	-1.0181410334278385	9.8795813178517	8.861440284423862	500.7111150874037	134.63095898997295	-5.6183206106870225	6.473282442748092	1.114503816793893	-0.046476761619190406	0.4287856071964018	0.08695652173913043	
1.7089486476018706E12	2.260869565217391	-6.445652173913043	3.652173913043478	3951.6483516483513	128.0	128.0	-1.0188622497155966	9.923070660003503	8.904208410287907	500.70563384361674	134.71700009310248	-4.213740458015267	5.343511450381679	1.0076335877862594	-0.041979010494752625	0.42278860569715143	0.0944527736131934	
1.7089486476214023E12	2.25	-6.391304347826087	3.5869565217391304	3951.6483516483513	128.0	128.0	-0.9722716775264356	9.942471378144191	8.970199700617755	500.70916780342674	134.617111637248	-4.0	6.885496183206107	0.9312977099236641	-0.038980509745127435	0.4257871064467766	0.08395802098950525	
1.708948647640934E12	2.2717391304347827	-6.380434782608695	3.532608695652174	3941.391941391941	128.0	128.0	-0.9569097705971922	9.991225599196627	9.034315828599434	500.70116230263267	134.69795998310568	-3.0076335877862594	6.99236641221374	0.8702290076335878	-0.04497751124437781	0.43178410794602695	0.07496251874062969	
1.7089486476604658E12	2.25	-6.33695652173913	3.5543478260869565	3951.6483516483513	128.0	128.0	-0.9416921069255003	10.0276470217284	9.0859549148029	500.69488772092916	134.58732540456361	-3.3740458015267176	7.236641221374046	0.9770992366412213	-0.046476761619190406	0.4287856071964018	0.0944527736131934	
1.7089486476799973E12	2.217391304347826	-6.358695652173913	3.5543478260869565	3951.6483516483513	128.0	128.0	-0.9259695918523779	10.063996322631397	9.13802673077902	500.69034405831627	134.6734386293219	-3.7709923664122136	6.763358778625954	1.114503816793893	-0.038980509745127435	0.4287856071964018	0.07646176911544228	
1.708948647699529E12	2.2282608695652173	-6.380434782608695	3.5978260869565215	3947.252747252747	128.0	128.0	-0.964194055103547	10.052456862027272	9.088262806923725	500.6857282740746	134.55523127975837	-3.877862595419847	6.793893129770992	0.916030534351145	-0.041979010494752625	0.4257871064467766	0.08395802098950525	
1.7089486477190608E12	2.2391304347826084	-6.413043478260869	3.5978260869565215	3953.113553113553	128.0	128.0	-1.0329980889556514	9.957616920187107	8.924618831231456	500.7064271815333	134.67300589954925	-4.427480916030534	6.641221374045801	0.7480916030534351	-0.04047976011994003	0.42728635682158916	0.07796101949025487	
1.7089486477385925E12	2.25	-6.423913043478261	3.6304347826086953	3926.7399267399264	128.0	128.0	-1.0563654966790077	9.900280225310354	8.843914728631345	500.69798895096653	134.58249325543562	-4.122137404580153	6.473282442748092	0.7633587786259541	-0.05247376311844078	0.424287856071964	0.08845577211394302	
1.7089486477581243E12	2.2282608695652173	-6.423913043478261	3.6304347826086953	3951.6483516483513	128.0	128.0	-1.0703570926615111	9.875542506640258	8.805185413978746	500.7036865596398	134.68937750928134	-3.3740458015267176	6.091603053435114	0.7022900763358778	-0.03298350824587706	0.43178410794602695	0.06746626686656672	
1.7089486477776558E12	2.2717391304347827	-6.445652173913043	3.5652173913043477	3950.18315018315	128.0	128.0	-1.0753334850470406	9.86609457327063	8.790761088223588	500.70440777592756	134.5802574849436	-3.2061068702290076	5.465648854961832	0.7022900763358778	-0.05397301349325337	0.42278860569715143	0.08395802098950525	
1.7089486477971875E12	2.282608695652174	-6.358695652173913	3.5543478260869565	3941.391941391941	128.0	128.0	-1.0689867817147711	9.854194504522624	8.785207722807852	500.6947434776716	134.3990879534588	-1.8931297709923662	6.33587786259542	0.5038167938931297	-0.025487256371814093	0.4497751124437781	0.07796101949025487	
1.7089486478167192E12	2.2065217391304346	-6.3478260869565215	3.5760869565217392	3948.7179487179483	128.0	128.0	-1.0777856204254175	9.884124980464577	8.806339360039159	500.70109018100385	134.56749195665026	-2.2748091603053435	5.297709923664122	0.7480916030534351	-0.05997001499250375	0.41379310344827586	0.095952023988006	
1.708948647836251E12	2.217391304347826	-6.358695652173913	3.652173913043478	3950.18315018315	128.0	128.0	-1.073818930842749	9.875470385011482	8.801651454168733	500.70051320797364	134.42598932099216	-2.931297709923664	7.801526717557252	0.8091603053435115	-0.037481259370314844	0.43928035982008995	0.07796101949025487	
1.7089486478557827E12	2.2717391304347827	-6.358695652173913	3.608695652173913	3948.7179487179483	128.0	128.0	-1.0656691867910848	9.877706155503532	8.812036968712446	500.69726773467875	134.58061809308745	-2.763358778625954	6.122137404580153	0.916030534351145	-0.05697151424287856	0.41829085457271364	0.07946026986506746	
1.7089486478753142E12	2.2391304347826084	-6.391304347826087	3.6630434782608696	3950.18315018315	128.0	128.0	-1.0664625247076185	9.887947426789694	8.821484902082075	500.6998641133147	134.40067462929187	-2.4580152671755724	7.0534351145038165	0.732824427480916	-0.04947526236881559	0.4257871064467766	0.07346326836581708	
1.708948647894846E12	2.260869565217391	-6.4021739130434785	3.5869565217391304	3926.7399267399264	128.0	128.0	-1.0668231328514974	9.88765894027459	8.820835807423093	500.68846889596813	134.57672352513356	-3.6488549618320607	6.809160305343511	0.6564885496183206	-0.038980509745127435	0.42278860569715143	0.07946026986506746	
1.7089486479143777E12	2.25	-6.380434782608695	3.652173913043478	3950.18315018315	128.0	128.0	-1.071438917093148	9.868907316792885	8.797468399699737	500.68890162574075	134.41733472553906	-2.8091603053435112	7.801526717557252	0.41221374045801523	-0.041979010494752625	0.4332833583208396	0.07346326836581708	
1.7089486479339094E12	2.25	-6.380434782608695	3.608695652173913	3950.18315018315	128.0	128.0	-1.0697801196313048	9.876912817586998	8.807132697955693	500.69459923441406	134.39173154732367	-2.6259541984732824	7.022900763358779	0.7633587786259541	-0.038980509745127435	0.43628185907046474	0.08995502248875561	
1.708948647953441E12	2.25	-6.391304347826087	3.6304347826086953	3941.391941391941	128.0	128.0	-1.071799525237027	9.865156992096544	8.793357466859517	500.69770046445143	134.42151778000806	-3.5572519083969465	6.778625954198473	0.7022900763358778	-0.04947526236881559	0.4257871064467766	0.08695652173913043	
1.7089486479729727E12	2.25	-6.391304347826087	3.5760869565217392	3950.18315018315	128.0	128.0	-1.0827620128109472	9.891481386599708	8.80871937378876	500.69798895096653	134.38798122262733	-3.465648854961832	6.519083969465648	0.7786259541984732	-0.05247376311844078	0.43178410794602695	0.08845577211394302	
1.7089486479925044E12	2.2717391304347827	-6.391304347826087	3.5869565217391304	3951.6483516483513	128.0	128.0	-1.0927147975820062	9.89263533266012	8.799920535078114	500.6955368155881	134.4258450777346	-3.7557251908396947	7.236641221374046	0.7633587786259541	-0.04497751124437781	0.424287856071964	0.09295352323838081	
1.7089486480120361E12	2.25	-6.369565217391304	3.619565217391304	3950.18315018315	128.0	128.0	-1.0751171201607133	9.875830993155361	8.800713872994647	500.6892622338846	134.3809133030073	-3.068702290076336	6.595419847328244	0.564885496183206	-0.034482758620689655	0.4287856071964018	0.08395802098950525	
1.7089486480315679E12	2.25	-6.380434782608695	3.5760869565217392	3951.6483516483513	128.0	128.0	-1.0788674448570543	9.879004344821496	8.800136899964441	500.68067976006034	134.42267172606847	-3.2061068702290076	6.870229007633587	1.0381679389312977	-0.047976011994003	0.424287856071964	0.09295352323838081	
1.7089486480510994E12	2.25	-6.4021739130434785	3.608695652173913	3925.274725274725	128.0	128.0	-1.0839880805001356	9.89039956216807	8.806411481667935	500.68176158449194	134.39036123637692	-3.3435114503816794	6.488549618320611	0.9770992366412213	-0.037481259370314844	0.43178410794602695	0.09895052473763118	
1.708948648070631E12	2.25	-6.391304347826087	3.641304347826087	3951.6483516483513	128.0	128.0	-1.0870171889087188	9.882394061373958	8.795376872465239	500.6794536923711	134.4502943098896	-3.2671755725190836	6.442748091603053	1.0381679389312977	-0.04497751124437781	0.41379310344827586	0.095952023988006	
1.7089486480901628E12	2.25	-6.358695652173913	3.5978260869565215	3950.18315018315	128.0	128.0	-1.091777216407921	9.909079064021	8.817301847613079	500.68717070665014	134.39598672342143	-3.129770992366412	6.091603053435114	0.8244274809160305	-0.05697151424287856	0.4407796101949025	0.07946026986506746	
1.7089486481096946E12	2.3043478260869565	-6.358695652173913	3.5978260869565215	3941.391941391941	128.0	128.0	-1.078651079970727	9.916002740383476	8.837351660412748	500.69243558555075	134.556962198849	-3.4351145038167936	6.702290076335878	0.8091603053435115	-0.03298350824587706	0.424287856071964	0.08545727136431784	
1.7089486481292263E12	2.260869565217391	-6.369565217391304	3.608695652173913	3950.18315018315	128.0	128.0	-1.0401381302044548	9.9341052692062	8.893967139001745	500.6873870715365	134.3979340073984	-3.7251908396946565	6.625954198473282	1.099236641221374	-0.046476761619190406	0.4332833583208396	0.07346326836581708	
1.7089486481487578E12	2.25	-6.380434782608695	3.608695652173913	3950.18315018315	128.0	128.0	-1.0550673073610435	9.94917868962034	8.894111382259297	500.683997354984	134.52616626336174	-3.5114503816793894	6.442748091603053	0.8396946564885496	-0.05997001499250375	0.4017991004497751	0.08545727136431784	
1.7089486481682896E12	2.260869565217391	-6.358695652173913	3.608695652173913	3950.18315018315	128.0	128.0	-1.076920160880108	9.967641826586942	8.890721665706833	500.688829504112	134.40608375145004	-3.4351145038167936	6.290076335877862	1.282442748091603	-0.047976011994003	0.424287856071964	0.07496251874062969	
1.7089486481878213E12	2.25	-6.391304347826087	3.5760869565217392	3950.18315018315	128.0	128.0	-1.108942164056559	9.934826485493957	8.825884321437398	500.6939501397551	134.53720087256443	-3.4351145038167936	6.244274809160305	0.8549618320610687	-0.05397301349325337	0.42278860569715143	0.08695652173913043	
1.708948648207353E12	2.282608695652174	-6.369565217391304	3.5869565217391304	3925.274725274725	128.0	128.0	-1.131083504090727	9.936341039698249	8.805257535607522	500.69488772092916	134.39115457429347	-3.3893129770992365	6.442748091603053	0.8396946564885496	-0.03298350824587706	0.43478260869565216	0.08845577211394302	
1.7089486482268848E12	2.25	-6.4021739130434785	3.5978260869565215	3950.18315018315	128.0	128.0	-1.1239434628419236	9.93100403916884	8.807060576326917	500.7015950324053	134.49392789529895	-3.618320610687023	6.534351145038167	0.9007633587786259	-0.04497751124437781	0.43178410794602695	0.08845577211394302	
1.7089486482464163E12	2.2282608695652173	-6.413043478260869	3.6630434782608696	3950.18315018315	128.0	128.0	-1.1302901661741933	9.939081661591729	8.808791495417536	500.695248329073	134.64055116660015	-3.465648854961832	6.5038167938931295	0.8702290076335878	-0.04497751124437781	0.4197901049475262	0.07796101949025487	
1.708948648265948E12	2.2391304347826084	-6.391304347826087	3.619565217391304	3941.391941391941	128.0	128.0	-1.1374302074229965	9.941822283485209	8.804392076062213	500.6984938023679	134.5077752480239	-3.129770992366412	6.931297709923664	0.9465648854961831	-0.037481259370314844	0.43178410794602695	0.09295352323838081	
1.7089486482854797E12	2.282608695652174	-6.4021739130434785	3.5652173913043477	3950.18315018315	128.0	128.0	-1.0135973708149637	10.059596903276075	9.045999532461112	500.6970513697924	134.66204341197533	-3.145038167938931	6.717557251908397	0.8702290076335878	-0.04497751124437781	0.43178410794602695	0.07796101949025487	
1.7089486483050115E12	2.2391304347826084	-6.380434782608695	3.608695652173913	3950.18315018315	128.0	128.0	-0.8543528144780177	10.246896773206805	9.392543958728787	500.68479069290055	134.44957309360186	-2.748091603053435	7.419847328244274	0.9618320610687022	-0.041979010494752625	0.4332833583208396	0.08395802098950525	
1.708948648324543E12	2.3152173913043477	-6.33695652173913	3.3478260869565215	3948.7179487179483	128.0	128.0	-1.0884596214842346	9.903020847203834	8.814561225719599	500.68205007100704	134.67026527765577	-3.3587786259541983	4.244274809160305	1.099236641221374	-0.04047976011994003	0.424287856071964	0.07796101949025487	
1.7089486483440747E12	2.043478260869565	-6.423913043478261	4.010869565217392	3950.18315018315	128.0	128.0	-1.1108894480335054	9.985167382379458	8.874277934345953	500.675631246046	134.54333121101038	-4.809160305343512	8.351145038167939	0.9312977099236641	-0.034482758620689655	0.4332833583208396	0.06596701649175413	
1.7089486483636064E12	2.3043478260869565	-6.380434782608695	3.3478260869565215	3931.135531135531	128.0	128.0	-1.1143512862147436	9.984157679576597	8.869806393361854	500.6797421788862	134.7151249307543	-3.541984732824427	6.061068702290076	1.1450381679389312	-0.031484257871064465	0.41529235382308843	0.08995502248875561	
1.7089486483831382E12	2.25	-6.3478260869565215	3.6956521739130435	3950.18315018315	128.0	128.0	-1.1139906780708646	9.995697140180724	8.88170646210986	500.6816894628632	134.6784871433362	-1.8778625954198473	9.404580152671755	1.129770992366412	-0.017991004497751123	0.43178410794602695	0.08545727136431784	
1.70894864840267E12	2.2391304347826084	-6.3478260869565215	3.4565217391304346	3950.18315018315	128.0	128.0	-1.105913055647976	9.993317126431123	8.887404070783147	500.6806076384315	134.72450074249517	-2.717557251908397	7.480916030534351	1.282442748091603	-0.05697151424287856	0.42278860569715143	0.10494752623688156	
1.7089486484222014E12	2.1739130434782608	-6.467391304347826	3.717391304347826	3941.391941391941	128.0	128.0	-1.1071391233371644	10.005145073550354	8.89800595021319	500.6837088684689	134.71231218723204	-6.061068702290076	8.427480916030534	1.2366412213740459	-0.04947526236881559	0.4287856071964018	0.07646176911544228	
1.7089486484417332E12	2.2282608695652173	-6.434782608695652	3.5978260869565215	3950.18315018315	128.0	128.0	-1.0955996627330378	10.02440154843349	8.928801885700452	500.6749100297583	134.71700009310248	-3.9541984732824424	5.541984732824427	1.114503816793893	-0.03298350824587706	0.43478260869565216	0.09895052473763118	
1.708948648461265E12	2.25	-6.423913043478261	3.608695652173913	3950.18315018315	128.0	128.0	-1.0699964845176322	10.039042239074975	8.969045754557342	500.6757754893036	134.70221515920343	-3.6030534351145036	6.152671755725191	0.7786259541984732	-0.046476761619190406	0.4257871064467766	0.08995502248875561	
1.7089486484807966E12	2.260869565217391	-6.391304347826087	3.4891304347826084	3950.18315018315	128.0	128.0	-1.0361714406217863	10.099047434216432	9.062875993594647	500.68305977380993	134.71353825492125	-3.145038167938931	6.030534351145038	0.9465648854961831	-0.04497751124437781	0.43178410794602695	0.09295352323838081	
1.7089486485003284E12	2.217391304347826	-6.358695652173913	3.5543478260869565	3950.18315018315	128.0	128.0	-1.0112173570653626	10.128256693870627	9.117039336805265	500.685295544302	134.7312080539713	-2.33587786259542	7.038167938931298	0.6106870229007634	-0.05397301349325337	0.4257871064467766	0.0944527736131934	
1.7089486485198599E12	2.2282608695652173	-6.3478260869565215	3.543478260869565	3925.274725274725	128.0	128.0	-0.9825850704413737	10.17910244215756	9.196517371716187	500.68507917941565	134.72810682393396	-2.916030534351145	6.824427480916031	0.9312977099236641	-0.04497751124437781	0.43178410794602695	0.08845577211394302	
1.7089486485393916E12	2.217391304347826	-6.380434782608695	3.5543478260869565	3951.6483516483513	128.0	128.0	-0.982801435327701	10.192444943481082	9.20964350815338	500.68233855752214	134.70214303757467	-3.5267175572519083	6.931297709923664	1.1755725190839694	-0.03298350824587706	0.43178410794602695	0.095952023988006	
1.7089486485589233E12	2.2391304347826084	-6.391304347826087	3.608695652173913	3950.18315018315	128.0	128.0	-1.0198719525184576	10.1804727531043	9.160600800585843	500.67995854377256	134.53424388578463	-3.7557251908396947	6.854961832061068	0.8702290076335878	-0.041979010494752625	0.4257871064467766	0.0944527736131934	
1.708948648578455E12	2.2391304347826084	-6.413043478260869	3.5869565217391304	3941.391941391941	128.0	128.0	-1.0853583914468756	10.06277025494221	8.977411863495334	500.68947859877096	134.709427322081	-3.7862595419847325	7.083969465648854	0.916030534351145	-0.04497751124437781	0.42728635682158916	0.08845577211394302	
1.7089486485979866E12	2.2282608695652173	-6.445652173913043	3.6304347826086953	3950.18315018315	128.0	128.0	-1.1053360826177696	10.002188086770547	8.896852004152777	500.6816894628632	134.56280405077985	-3.465648854961832	6.824427480916031	0.916030534351145	-0.041979010494752625	0.42278860569715143	0.08395802098950525	
1.7089486486175183E12	2.2282608695652173	-6.413043478260869	3.5652173913043477	3950.18315018315	128.0	128.0	-1.1060572989055275	9.961006636739569	8.854949337834041	500.6771458002503	134.73135229722885	-3.114503816793893	6.595419847328244	0.8091603053435115	-0.046476761619190406	0.4332833583208396	0.07946026986506746	
1.70894864863705E12	2.2717391304347827	-6.413043478260869	3.510869565217391	3950.18315018315	128.0	128.0	-1.1152888673888288	9.947087162385841	8.831798294997013	500.667914231767	134.61408252883942	-3.114503816793893	6.748091603053435	0.8091603053435115	-0.041979010494752625	0.4257871064467766	0.0944527736131934	
1.7089486486565818E12	2.2391304347826084	-6.369565217391304	3.5869565217391304	3950.18315018315	128.0	128.0	-1.1025954607242896	9.937206499243558	8.834611038519268	500.67765065165173	134.77989015339497	-2.33587786259542	7.801526717557252	0.549618320610687	-0.038980509745127435	0.42278860569715143	0.08995502248875561	
1.7089486486761135E12	2.217391304347826	-6.3478260869565215	3.608695652173913	3925.274725274725	128.0	128.0	-1.1151446241312772	9.943841689090931	8.828697064959654	500.6869543417638	134.60629339293163	-1.2213740458015268	5.847328244274809	0.8854961832061068	-0.05247376311844078	0.43178410794602695	0.08095952023988005	
1.708948648695645E12	2.2391304347826084	-6.423913043478261	3.6304347826086953	3950.18315018315	128.0	128.0	-1.1073554882234917	9.953866595490766	8.846511107267274	500.69517620744426	134.4991206525708	-3.2519083969465647	7.908396946564885	0.7175572519083969	-0.05397301349325337	0.4332833583208396	0.08995502248875561	
1.7089486487151768E12	2.217391304347826	-6.380434782608695	3.6304347826086953	3950.18315018315	128.0	128.0	-1.1046148663300117	9.955525392952609	8.850910526622597	500.69005557180117	134.6123516097488	-2.763358778625954	6.229007633587786	1.2213740458015268	-0.034482758620689655	0.4257871064467766	0.10194902548725637	
1.7089486487347085E12	2.217391304347826	-6.380434782608695	3.6739130434782608	3941.391941391941	128.0	128.0	-1.1010087848912222	9.952207798028923	8.8511990131377	500.68933435551344	134.49046605711771	-2.5801526717557253	7.0534351145038165	0.9312977099236641	-0.05397301349325337	0.4257871064467766	0.08995502248875561	
1.7089486487542402E12	2.25	-6.423913043478261	3.641304347826087	3922.344322344322	128.0	128.0	-1.0989893792855001	9.95328962246056	8.854300243175059	500.6759918541899	134.5905708778585	-3.236641221374046	7.343511450381679	0.8244274809160305	-0.04497751124437781	0.4197901049475262	0.10344827586206896	
1.708948648773772E12	2.217391304347826	-6.380434782608695	3.6304347826086953	3950.18315018315	128.0	128.0	-1.100071203717137	9.939874999508262	8.839803795791125	500.6718087997209	134.4988321660557	-2.7022900763358777	7.541984732824427	0.6870229007633587	-0.046476761619190406	0.42278860569715143	0.08395802098950525	
1.7089486487933035E12	2.1739130434782608	-6.369565217391304	3.641304347826087	3950.18315018315	128.0	128.0	-1.094157230157522	9.931436768941495	8.837279538783973	500.68298765218117	134.61451525861207	-1.9694656488549618	7.419847328244274	0.9618320610687022	-0.04497751124437781	0.42728635682158916	0.08545727136431784	
1.7089486488128352E12	2.217391304347826	-6.369565217391304	3.5760869565217392	3951.6483516483513	128.0	128.0	-1.1063457854206307	9.934682242236406	8.828336456815775	500.69193073414937	134.49609154416223	-2.1526717557251906	6.687022900763359	0.8549618320610687	-0.037481259370314844	0.424287856071964	0.07796101949025487	
1.708948648832367E12	2.25	-6.380434782608695	3.5652173913043477	3935.531135531135	128.0	128.0	-1.1039657716710296	9.93323980966089	8.82927403798986	500.68450220638545	134.57867080911052	-2.8702290076335877	6.198473282442748	0.8091603053435115	-0.05247376311844078	0.43178410794602695	0.09295352323838081	
1.7089486488518987E12	2.2391304347826084	-6.4021739130434785	3.641304347826087	3950.18315018315	128.0	128.0	-1.105191839360218	9.920690646253902	8.815498806893684	500.66805847502457	134.50438553147146	-2.7022900763358777	6.595419847328244	1.2061068702290076	-0.04497751124437781	0.43178410794602695	0.09295352323838081	
1.7089486488714302E12	2.2391304347826084	-6.391304347826087	3.6304347826086953	3951.6483516483513	128.0	128.0	-1.0946620815589525	9.902948725575058	8.808286644016105	500.66603906941884	134.54527849498731	-2.2748091603053435	6.916030534351145	0.9770992366412213	-0.05247376311844078	0.416791604197901	0.07796101949025487	
1.708948648890962E12	2.2391304347826084	-6.413043478260869	3.608695652173913	3941.391941391941	128.0	128.0	-1.0937245003848672	9.903742063491592	8.810017563106724	500.67757853002297	134.43861060602794	-2.4885496183206106	6.259541984732824	0.8549618320610687	-0.05697151424287856	0.42278860569715143	0.08995502248875561	
1.7089486489104937E12	2.217391304347826	-6.4021739130434785	3.619565217391304	3951.6483516483513	128.0	128.0	-1.0923541894381272	9.893789278720533	8.801435089282405	500.67101546180436	134.49594730090467	-2.2900763358778624	6.412213740458015	0.6717557251908397	-0.047976011994003	0.43928035982008995	0.09295352323838081	
1.7089486489300254E12	2.2282608695652173	-6.380434782608695	3.652173913043478	3950.18315018315	128.0	128.0	-1.0959602708769167	9.90258811743118	8.806627846554262	500.6697893941152	134.42216687466706	-2.259541984732824	5.877862595419847	0.47328244274809156	-0.047976011994003	0.42728635682158916	0.08545727136431784	
1.7089486489495571E12	2.2282608695652173	-6.391304347826087	3.5869565217391304	3950.18315018315	128.0	128.0	-1.0875220403101493	9.893861400349309	8.806339360039159	500.6676978668807	134.45555918879023	-2.763358778625954	5.32824427480916	0.38167938931297707	-0.06896551724137931	0.41829085457271364	0.07646176911544228	
1.7089486489690886E12	2.260869565217391	-6.380434782608695	3.5760869565217392	3951.6483516483513	128.0	128.0	-1.059322483458815	9.882754669517837	8.823432186059021	500.67426093509926	134.38163451929506	-2.3053435114503817	5.648854961832061	0.5801526717557252	-0.04047976011994003	0.416791604197901	0.09295352323838081	
1.7089486489886204E12	2.2717391304347827	-6.358695652173913	3.608695652173913	3923.8095238095234	128.0	128.0	-1.04929757705898	9.920330038110022	8.871032461051042	500.67346759718276	134.43550937599056	-2.1221374045801524	6.717557251908397	0.5954198473282443	-0.031484257871064465	0.4257871064467766	0.08995502248875561	
1.708948649008152E12	2.25	-6.4021739130434785	3.608695652173913	3950.18315018315	128.0	128.0	-1.0422296574389527	9.905761469097312	8.86353181165836	500.67130394831946	134.59114785088872	-2.427480916030534	6.137404580152672	0.564885496183206	-0.05547226386806597	0.43478260869565216	0.09895052473763118	
1.7089486490276838E12	2.2282608695652173	-6.4021739130434785	3.684782608695652	3950.18315018315	128.0	128.0	-1.0429508737267106	9.914920915951837	8.871970042225128	500.6689239345699	134.41459410364558	-2.396946564885496	6.045801526717557	0.6259541984732824	-0.04047976011994003	0.42728635682158916	0.0704647676161919	
1.7089486490472156E12	2.2282608695652173	-6.380434782608695	3.6630434782608696	3941.391941391941	128.0	128.0	-1.0733140794413185	9.887586818645815	8.814272739204496	500.67058273203173	134.593960594411	-2.2748091603053435	6.8396946564885495	0.8702290076335878	-0.031484257871064465	0.41079460269865065	0.07946026986506746	
1.708948649066747E12	2.25	-6.391304347826087	3.5869565217391304	3950.18315018315	128.0	128.0	-1.0873777970525977	9.853401166606089	8.76602336955349	500.67188092134967	134.42923479428708	-2.778625954198473	6.33587786259542	0.7175572519083969	-0.05247376311844078	0.4422788605697151	0.09295352323838081	
1.7089486490862788E12	2.25	-6.391304347826087	3.619565217391304	3951.6483516483513	128.0	128.0	-1.086295972620961	9.831331948200697	8.745035975579736	500.66841908316843	134.6004515410008	-2.381679389312977	6.5038167938931295	0.8244274809160305	-0.04047976011994003	0.43928035982008995	0.07496251874062969	
1.7089486491058105E12	2.2065217391304346	-6.4021739130434785	3.641304347826087	3948.7179487179483	128.0	128.0	-1.105552447504097	9.851886612401797	8.7463341648977	500.6764967055913	134.4494288503443	-2.091603053435114	6.748091603053435	0.6564885496183206	-0.05397301349325337	0.4257871064467766	0.06896551724137931	
1.7089486491253423E12	2.2391304347826084	-6.413043478260869	3.608695652173913	3942.8571428571427	128.0	128.0	-1.0800935125462428	9.828447083049666	8.748353570503422	500.6767851921064	134.60232670334898	-1.9236641221374045	7.236641221374046	0.6106870229007634	-0.038980509745127435	0.4332833583208396	0.08395802098950525	
1.7089486491448738E12	2.25	-6.391304347826087	3.6630434782608696	3938.461538461538	128.0	128.0	-1.09624875739202	9.863209708119596	8.766960950727576	500.66481300172967	134.68021806242683	-2.259541984732824	6.763358778625954	0.7022900763358778	-0.05697151424287856	0.4332833583208396	0.07946026986506746	
1.7089486491644055E12	2.260869565217391	-6.4021739130434785	3.7065217391304346	3950.18315018315	128.0	128.0	-0.5975276944074267	10.528531733576267	9.93100403916884	500.66272147449513	134.5063328154484	-1.9389312977099236	6.809160305343511	0.916030534351145	-0.04947526236881559	0.4332833583208396	0.07646176911544228	
1.7089486491839373E12	2.293478260869565	-6.3478260869565215	3.4891304347826084	3950.18315018315	128.0	128.0	-1.01554465479191	9.87496553361005	8.85942087881814	500.6681305966533	134.7225534585182	-4.076335877862595	1.9541984732824427	0.38167938931297707	-0.04497751124437781	0.424287856071964	0.08845577211394302	
1.708948649203469E12	2.130434782608696	-6.3478260869565215	3.8152173913043477	3941.391941391941	128.0	128.0	-1.0500187933467382	9.859098775279378	8.809079981932639	500.6759918541899	134.64321966686484	-4.152671755725191	11.32824427480916	0.061068702290076333	-0.05697151424287856	0.4287856071964018	0.07646176911544228	
1.7089486492230007E12	2.141304347826087	-6.369565217391304	3.6956521739130435	3950.18315018315	128.0	128.0	-1.0512448610359266	9.852679950318333	8.801435089282405	500.67541488115967	134.73697778427336	-2.946564885496183	5.038167938931298	0.7175572519083969	-0.041979010494752625	0.4332833583208396	0.06896551724137931	
1.7089486492425322E12	2.3152173913043477	-6.391304347826087	3.5217391304347827	3950.18315018315	128.0	128.0	-1.0330702105844272	9.843664746721357	8.81059453613693	500.6684912047972	134.62648744898885	-1.7557251908396947	10.48854961832061	1.0076335877862594	-0.03298350824587706	0.424287856071964	0.07496251874062969	
1.708948649262064E12	2.217391304347826	-6.326086956521739	3.6304347826086953	3950.18315018315	128.0	128.0	-1.040426616719558	9.837390165017863	8.796963548298306	500.6723857727511	134.73055895931233	-2.4885496183206106	5.877862595419847	1.1755725190839694	-0.046476761619190406	0.4407796101949025	0.08395802098950525	
1.7089486492815957E12	2.260869565217391	-6.391304347826087	3.6630434782608696	3951.6483516483513	128.0	128.0	-1.0230453041845924	9.854194504522622	8.83114920033803	500.6673372587368	134.59655697304692	-5.83206106870229	7.2824427480916025	0.9007633587786259	-0.037481259370314844	0.424287856071964	0.08845577211394302	
1.7089486493011274E12	2.260869565217391	-6.478260869565217	3.7282608695652173	3926.7399267399264	128.0	128.0	-1.0037888293014563	9.847415071417698	8.843626242116242	500.6678421101382	134.73084744582744	-3.282442748091603	3.4045801526717554	0.732824427480916	-0.029985007496251874	0.41379310344827586	0.08845577211394302	
1.7089486493206592E12	2.260869565217391	-6.445652173913043	3.6956521739130435	3950.18315018315	128.0	128.0	-0.9982354638857203	9.881961331601302	8.883725867715581	500.66207237983616	134.6031200412655	-1.4809160305343512	6.595419847328244	0.15267175572519084	-0.041979010494752625	0.4287856071964018	0.06596701649175413	
1.7089486493401907E12	2.293478260869565	-6.391304347826087	3.6739130434782608	3950.18315018315	128.0	128.0	-0.9471012290836847	9.894438373379515	8.94733714429583	500.6602693391168	134.77787074778925	-1.4809160305343512	5.740458015267175	0.3053435114503817	-0.038980509745127435	0.4287856071964018	0.08695652173913043	
1.7089486493597224E12	2.2717391304347827	-6.326086956521739	3.543478260869565	3941.391941391941	128.0	128.0	-0.9409708906377424	9.942976229545621	9.002005338907878	500.65406687904203	134.66377433106595	-1.3587786259541985	7.114503816793893	0.6412213740458015	-0.031484257871064465	0.4407796101949025	0.08695652173913043	
1.7089486493792542E12	2.2282608695652173	-6.315217391304348	3.6739130434782608	3951.6483516483513	128.0	128.0	-0.9057755357951566	10.01048207407976	9.104706538284605	500.66337056915415	134.7806834913115	-2.1526717557251906	6.366412213740458	1.129770992366412	-0.03298350824587706	0.42728635682158916	0.08545727136431784	
1.708948649398786E12	2.2391304347826084	-6.315217391304348	3.6304347826086953	3951.6483516483513	128.0	128.0	-0.9005827785232996	10.017405750442236	9.116822971918937	500.6635148124117	134.66759677739105	-3.5877862595419847	6.534351145038167	1.0534351145038168	-0.04947526236881559	0.4257871064467766	0.07946026986506746	
1.7089486494183174E12	2.25	-6.369565217391304	3.7065217391304346	3950.18315018315	128.0	128.0	-0.9310902274954591	9.990504382908867	9.059414155413409	500.67765065165173	134.77390405820657	-3.3740458015267176	7.068702290076335	0.8396946564885496	-0.046476761619190406	0.4287856071964018	0.08395802098950525	
1.708948649437849E12	2.2717391304347827	-6.413043478260869	3.652173913043478	3950.18315018315	128.0	128.0	-0.9830899218428042	9.924801579094122	8.941711657251318	500.66575058290374	134.67653985935925	-3.4198473282442747	6.595419847328244	0.9007633587786259	-0.04047976011994003	0.42728635682158916	0.07796101949025487	
1.7089486494573809E12	2.282608695652174	-6.4021739130434785	3.641304347826087	3941.391941391941	128.0	128.0	-1.0154004115343584	9.867537005846144	8.852136594311785	500.667914231767	134.5352535885875	-2.4122137404580153	7.038167938931298	0.7022900763358778	-0.047976011994003	0.43178410794602695	0.07796101949025487	
1.7089486494769126E12	2.260869565217391	-6.369565217391304	3.6956521739130435	3951.6483516483513	128.0	128.0	-1.038695697628939	9.8110657705147	8.772370072885762	500.66005297423044	134.73070320256988	-2.5038167938931295	6.427480916030534	0.6717557251908397	-0.04047976011994003	0.42728635682158916	0.09295352323838081	
1.7089486494964443E12	2.2282608695652173	-6.423913043478261	3.5652173913043477	3950.18315018315	128.0	128.0	-1.0358108324779074	9.792602633548096	8.75679180107019	500.6795979356287	134.54246575146507	-3.114503816793893	5.419847328244274	0.7175572519083969	-0.05397301349325337	0.4287856071964018	0.08395802098950525	
1.7089486495159758E12	2.25	-6.369565217391304	3.6739130434782608	3939.9267399267396	128.0	128.0	-1.0446096711885537	9.779764983626006	8.735155312437453	500.6666881640778	134.72450074249517	-0.2900763358778626	7.145038167938931	1.0381679389312977	-0.034482758620689655	0.4407796101949025	0.06896551724137931	
1.7089486495355076E12	2.260869565217391	-6.304347826086956	3.619565217391304	3950.18315018315	128.0	128.0	-1.0395611571742485	9.785895322071948	8.7463341648977	500.67058273203173	134.54289848123773	-1.2213740458015268	7.480916030534351	1.2519083969465647	-0.038980509745127435	0.41829085457271364	0.08995502248875561	
1.7089486495550393E12	2.1956521739130435	-6.33695652173913	3.8260869565217392	3950.18315018315	128.0	128.0	-1.0346568864174948	9.788131092563997	8.753474206146503	500.6780833814244	134.72075041779883	-3.8625954198473282	8.244274809160306	1.083969465648855	-0.03298350824587706	0.42728635682158916	0.07496251874062969	
1.708948649574571E12	2.282608695652174	-6.4021739130434785	3.6304347826086953	3950.18315018315	128.0	128.0	-1.029031399372983	9.792746876805648	8.763715477432665	500.67765065165173	134.553428239039	-3.145038167938931	7.343511450381679	1.2213740458015268	-0.05247376311844078	0.43178410794602695	0.08845577211394302	
1.7089486495941028E12	2.25	-6.380434782608695	3.760869565217391	3951.6483516483513	128.0	128.0	-1.0323489942966693	9.793756579608509	8.76140758531184	500.6697893941152	134.52349776309703	-2.6259541984732824	9.022900763358779	0.8244274809160305	-0.046476761619190406	0.4332833583208396	0.08695652173913043	
1.7089486496136343E12	2.260869565217391	-6.391304347826087	3.684782608695652	3926.7399267399264	128.0	128.0	-1.024559858388884	9.798516607107713	8.77395674871883	500.68933435551344	134.56280405077985	-4.076335877862595	8.320610687022901	1.1908396946564885	-0.04047976011994003	0.42728635682158916	0.06746626686656672	
1.708948649633166E12	2.217391304347826	-6.380434782608695	3.684782608695652	3950.18315018315	128.0	128.0	-1.0198719525184576	9.794405674267493	8.774533721749036	500.68053551680276	134.54643244104773	-2.9618320610687023	8.946564885496183	1.114503816793893	-0.04947526236881559	0.42278860569715143	0.08695652173913043	
1.7089486496526978E12	2.2065217391304346	-6.3478260869565215	3.6739130434782608	3950.18315018315	128.0	128.0	-1.0143185871027216	9.774427983096597	8.760109395993876	500.69315680183854	134.60802431202225	-3.2061068702290076	7.022900763358779	1.5419847328244274	-0.04497751124437781	0.424287856071964	0.0704647676161919	
1.7089486496722295E12	2.2065217391304346	-6.33695652173913	3.652173913043478	3939.9267399267396	128.0	128.0	-1.0152561682768069	9.767792793249225	8.752536624972418	500.6715203132058	134.58624358013196	-3.5114503816793894	7.3893129770992365	1.2213740458015268	-0.031484257871064465	0.44377811094452774	0.08395802098950525	
1.708948649691761E12	2.217391304347826	-6.369565217391304	3.717391304347826	3947.252747252747	128.0	128.0	-1.029680494031965	9.780630443171315	8.75094994913935	500.6703663671454	134.6192031644825	-3.6488549618320607	7.221374045801526	1.0687022900763359	-0.037481259370314844	0.424287856071964	0.07796101949025487	
1.7089486497112927E12	2.25	-6.380434782608695	3.6956521739130435	3950.18315018315	128.0	128.0	-1.0209537769500945	9.771398874688014	8.75044509773792	500.6716645564633	134.59222967532037	-4.106870229007633	7.49618320610687	1.0229007633587786	-0.047976011994003	0.424287856071964	0.07796101949025487	
1.7089486497308245E12	2.2391304347826084	-6.380434782608695	3.641304347826087	3950.18315018315	128.0	128.0	-1.0178525469127353	9.777961942906611	8.760109395993876	500.66589482616126	134.75616213752772	-3.679389312977099	7.480916030534351	1.1450381679389312	-0.0239880059970015	0.42278860569715143	0.07946026986506746	
1.7089486497503562E12	2.217391304347826	-6.369565217391304	3.6630434782608696	3950.18315018315	128.0	128.0	-1.0146791952466006	9.756325454273874	8.741646259027274	500.6700778806303	134.62569411107233	-3.1908396946564883	7.755725190839694	0.8244274809160305	-0.037481259370314844	0.43178410794602695	0.07496251874062969	
1.708948649769888E12	2.217391304347826	-6.33695652173913	3.641304347826087	3944.322344322344	128.0	128.0	-1.023189547442144	9.778971645709472	8.755782098267328	500.67757853002297	134.78731868115887	-3.6946564885496183	7.419847328244274	0.6717557251908397	-0.05247376311844078	0.43928035982008995	0.08845577211394302	
1.7089486497894194E12	2.2282608695652173	-6.3478260869565215	3.652173913043478	3951.6483516483513	128.0	128.0	-1.0035003427863531	9.749762386055277	8.746262043268924	500.67851611119704	134.65656216818837	-4.122137404580153	7.480916030534351	1.0229007633587786	-0.047976011994003	0.424287856071964	0.07796101949025487	
1.7089486498089512E12	2.2391304347826084	-6.3478260869565215	3.608695652173913	3951.6483516483513	128.0	128.0	-1.0126597896408784	9.767143698590242	8.754483908949364	500.6816173412344	134.79936299316444	-4.381679389312977	7.450381679389313	0.9618320610687022	-0.04047976011994003	0.424287856071964	0.08095952023988005	
1.708948649828483E12	2.217391304347826	-6.33695652173913	3.6304347826086953	3939.9267399267396	128.0	128.0	-1.004942775361869	9.807748175591014	8.802805400229145	500.6751985162734	134.66088946591492	-4.198473282442748	6.854961832061068	1.0076335877862594	-0.034482758620689655	0.42278860569715143	0.08695652173913043	
1.7089486498480146E12	2.2391304347826084	-6.3478260869565215	3.652173913043478	3951.6483516483513	128.0	128.0	-0.9690983258603009	9.787049268132362	8.817950942272061	500.6712318266907	134.79957935805075	-4.9465648854961835	7.022900763358779	1.0687022900763359	-0.05697151424287856	0.42278860569715143	0.08395802098950525	
1.7089486498675464E12	2.2282608695652173	-6.358695652173913	3.6956521739130435	3951.6483516483513	128.0	128.0	-0.9723437991552114	9.826283434186392	8.85393963503118	500.64404197264224	134.6525954786057	-4.885496183206107	7.114503816793893	0.8091603053435115	-0.046476761619190406	0.43628185907046474	0.09745127436281859	
1.708948649887078E12	2.217391304347826	-6.391304347826087	3.6630434782608696	3948.7179487179483	128.0	128.0	-0.9889317737736433	9.821595528315965	8.832663754542322	500.6632263258966	134.76164338131468	-4.8396946564885495	6.6106870229007635	0.8854961832061068	-0.047976011994003	0.4197901049475262	0.09295352323838081	
1.7089486499066096E12	2.2282608695652173	-6.380434782608695	3.5978260869565215	3941.391941391941	128.0	128.0	-1.013813735701291	9.802699661576709	8.788885925875418	500.67015000225905	135.11677028140667	-4.015267175572519	7.0534351145038165	0.7022900763358778	-0.04497751124437781	0.416791604197901	0.09895052473763118	
1.7089486499261414E12	2.2065217391304346	-6.358695652173913	3.6630434782608696	3925.274725274725	128.0	128.0	-1.021458628351525	9.788491700707876	8.767033072356352	500.67216940786477	134.99769747229786	-3.3587786259541983	6.442748091603053	0.3969465648854962	-0.05697151424287856	0.4332833583208396	0.08395802098950525	
1.708948649945673E12	2.2065217391304346	-6.33695652173913	3.652173913043478	3950.18315018315	128.0	128.0	-1.0212422634651976	9.770677658400256	8.749435394935059	500.66192813657864	135.12513639034466	-3.5572519083969465	6.6106870229007635	0.38167938931297707	-0.04497751124437781	0.43478260869565216	0.08845577211394302	
1.7089486499652048E12	2.1847826086956523	-6.380434782608695	3.6739130434782608	3948.7179487179483	128.0	128.0	-1.0303295886909472	9.795559620327904	8.765230031636957	500.6599087309729	134.97779190275574	-3.2671755725190836	6.671755725190839	0.8702290076335878	-0.04047976011994003	0.42728635682158916	0.08545727136431784	
1.7089486499847363E12	2.2391304347826084	-6.369565217391304	3.652173913043478	3936.9963369963366	128.0	128.0	-1.0122270598682237	9.768514009536982	8.756286949668759	500.65594204139023	135.09881199584152	-3.633587786259542	7.2824427480916025	0.7175572519083969	-0.047976011994003	0.43478260869565216	0.07496251874062969	
1.708948650004268E12	2.2282608695652173	-6.380434782608695	3.684782608695652	3950.18315018315	128.0	128.0	-0.7946361058516629	10.028079751501053	9.233443645649391	500.6678421101382	134.9248546272343	-4.137404580152672	7.099236641221374	0.5801526717557252	-0.034482758620689655	0.41529235382308843	0.08395802098950525	
1.7089486500237998E12	2.2391304347826084	-6.369565217391304	3.652173913043478	3950.18315018315	128.0	128.0	-0.6837851624232725	10.355223459628043	9.67143829720477	500.66178389332106	135.01832425812773	-3.5267175572519083	5.984732824427481	0.8854961832061068	-0.038980509745127435	0.4257871064467766	0.08695652173913043	
1.7089486500433315E12	2.282608695652174	-6.315217391304348	3.369565217391304	3947.252747252747	128.0	128.0	-0.9916002740383476	9.784813497640313	8.793213223601965	500.6668324073354	135.09881199584152	-6.1679389312977095	2.183206106870229	0.6412213740458015	-0.037481259370314844	0.42728635682158916	0.08845577211394302	
1.708948650062863E12	2.0652173913043477	-6.358695652173913	4.010869565217392	3950.18315018315	128.0	128.0	-0.9920330038110023	9.828663447935993	8.83663044412499	500.6687796913123	135.12246789007997	-5.923664122137405	11.893129770992365	0.564885496183206	-0.04047976011994003	0.4197901049475262	0.0704647676161919	
1.7089486500823948E12	2.282608695652174	-6.3478260869565215	3.4239130434782608	3944.322344322344	128.0	128.0	-1.0029954913849226	9.836019854071123	8.833024362686201	500.6669766505929	135.11864544375484	-4.885496183206107	4.854961832061068	0.4580152671755725	-0.05547226386806597	0.4197901049475262	0.08845577211394302	
1.7089486501019265E12	2.260869565217391	-6.3478260869565215	3.641304347826087	3950.18315018315	128.0	128.0	-0.9925378552124329	9.839986543653792	8.847448688441359	500.6762082190762	135.11237086205136	-3.49618320610687	10.702290076335878	1.1450381679389312	-0.041979010494752625	0.4287856071964018	0.07946026986506746	
1.7089486501214583E12	2.2282608695652173	-6.326086956521739	3.6304347826086953	3950.18315018315	128.0	128.0	-0.9806377864644273	9.83212528611723	8.851487499652803	500.6768573137352	135.0794112777008	-5.7251908396946565	6.183206106870228	1.099236641221374	-0.05247376311844078	0.416791604197901	0.08545727136431784	
1.70894865014099E12	2.2065217391304346	-6.456521739130435	3.619565217391304	3934.065934065934	128.0	128.0	-0.969747420519283	9.843881111607685	8.874133691088401	500.6770736786215	135.10667325337806	-7.404580152671755	7.297709923664121	0.8244274809160305	-0.041979010494752625	0.4257871064467766	0.08395802098950525	
1.7089486501605215E12	2.2065217391304346	-6.445652173913043	3.6304347826086953	3951.6483516483513	128.0	128.0	-0.969386812375404	9.891409264970932	8.922022452595527	500.66243298798	135.08171916982164	-4.183206106870228	4.33587786259542	1.0076335877862594	-0.05247376311844078	0.43178410794602695	0.08545727136431784	
1.7089486501800532E12	2.2391304347826084	-6.423913043478261	3.6630434782608696	3951.6483516483513	128.0	128.0	-0.9385908768881414	9.885351048153765	8.946760171265623	500.66358693404044	134.91043030147915	-3.633587786259542	6.99236641221374	0.8244274809160305	-0.037481259370314844	0.40629685157421286	0.08845577211394302	
1.708948650199585E12	2.2391304347826084	-6.380434782608695	3.5543478260869565	3951.6483516483513	128.0	128.0	-0.9210653210956241	9.955453271323833	9.03438795022821	500.64606137824796	135.09506167114517	-3.3893129770992365	6.427480916030534	0.41221374045801523	-0.037481259370314844	0.40929535232383807	0.10344827586206896	
1.7089486502191167E12	2.2282608695652173	-6.3478260869565215	3.532608695652174	3950.18315018315	128.0	128.0	-0.8824081280718004	9.953722352233214	9.071314224161414	500.6469268377933	134.9099254500777	-3.0839694656488548	7.404580152671755	0.916030534351145	-0.038980509745127435	0.41529235382308843	0.08395802098950525	
1.7089486502386484E12	2.1630434782608696	-6.3478260869565215	3.543478260869565	3926.7399267399264	128.0	128.0	-0.8579588959168072	10.034426454833325	9.176467558916517	500.63704617465095	135.0842434268288	-3.7557251908396947	6.641221374045801	0.7022900763358778	-0.04047976011994003	0.43478260869565216	0.07796101949025487	
1.70894865025818E12	2.1847826086956523	-6.3478260869565215	3.532608695652174	3923.8095238095234	128.0	128.0	-0.8451212459947165	10.03997982024906	9.194858574254344	500.6470710810508	134.8962223406103	-4.305343511450381	7.099236641221374	0.8396946564885496	-0.04497751124437781	0.4422788605697151	0.08845577211394302	
1.7089486502777117E12	2.2282608695652173	-6.391304347826087	3.5869565217391304	3950.18315018315	128.0	128.0	-0.9125549689000808	10.031974319454946	9.119419350554866	500.6475038108235	135.05993843793135	-3.9847328244274807	7.129770992366412	0.732824427480916	-0.038980509745127435	0.4332833583208396	0.08695652173913043	
1.7089486502972434E12	2.25	-6.413043478260869	3.5652173913043477	3936.9963369963366	128.0	128.0	-0.9460194046520478	9.95155870336994	9.005539298717892	500.6574565955945	134.91035817985036	-3.9236641221374042	7.633587786259541	0.6717557251908397	-0.041979010494752625	0.4332833583208396	0.08695652173913043	
1.7089486503167751E12	2.2391304347826084	-6.4021739130434785	3.5652173913043477	3950.18315018315	128.0	128.0	-0.9912396658944687	9.889317737736434	8.898078071841965	500.67440517835684	135.065203316832	-3.4198473282442747	7.572519083969465	0.7633587786259541	-0.04947526236881559	0.42278860569715143	0.07946026986506746	
1.7089486503363066E12	2.1956521739130435	-6.434782608695652	3.5869565217391304	3950.18315018315	128.0	128.0	-0.9797002052903421	9.859459383423255	8.879759178132913	500.6733233539252	134.87855254156025	-4.061068702290076	6.580152671755725	0.42748091603053434	-0.037481259370314844	0.4197901049475262	0.08545727136431784	
1.7089486503558384E12	2.1739130434782608	-6.445652173913043	3.5760869565217392	3948.7179487179483	128.0	128.0	-0.9863353951377148	9.85938726179448	8.873051866656764	500.6724578943799	134.7672688683592	-2.763358778625954	7.66412213740458	0.564885496183206	-0.041979010494752625	0.43628185907046474	0.08395802098950525	
1.70894865037537E12	2.2391304347826084	-6.391304347826087	3.543478260869565	3950.18315018315	128.0	128.0	-0.9925378552124329	9.8590266536506	8.866488798438168	500.6855119091883	134.87559555478043	-1.129770992366412	5.541984732824427	0.732824427480916	-0.05547226386806597	0.416791604197901	0.07496251874062969	
1.7089486503949019E12	2.2065217391304346	-6.4021739130434785	3.5217391304347827	3945.7875457875457	128.0	128.0	-0.9864075167664906	9.867104276073489	8.880696759306998	500.67397244858415	134.74729117718832	-2.198473282442748	7.587786259541985	0.549618320610687	-0.046476761619190406	0.43628185907046474	0.08995502248875561	
1.7089486504144336E12	2.1847826086956523	-6.369565217391304	3.652173913043478	3950.18315018315	128.0	128.0	-0.9845323544183201	9.876768574329445	8.892236219911124	500.67952581399993	134.89254413754276	-2.2900763358778624	6.946564885496183	0.7175572519083969	-0.06146926536731634	0.41829085457271364	0.08695652173913043	
1.708948650433965E12	2.260869565217391	-6.358695652173913	3.5869565217391304	3950.18315018315	128.0	128.0	-0.9909511793793654	9.887586818645815	8.89663563926645	500.67967005725745	134.74801239347607	-2.030534351145038	5.923664122137405	0.6870229007633587	-0.06296851574212893	0.4197901049475262	0.08545727136431784	
1.7089486504534968E12	2.260869565217391	-6.413043478260869	3.652173913043478	3935.531135531135	128.0	128.0	-0.9803492999493242	9.891337143342156	8.910987843392832	500.6785882328258	134.86838339190285	-3.0229007633587783	8.030534351145038	0.2748091603053435	-0.04947526236881559	0.43628185907046474	0.07946026986506746	
1.7089486504730286E12	2.217391304347826	-6.413043478260869	3.619565217391304	3951.6483516483513	128.0	128.0	-0.9830178002140284	9.881240115313545	8.898222315099517	500.6803191519164	134.74678632578687	-2.1374045801526718	7.2824427480916025	0.3511450381679389	-0.04497751124437781	0.424287856071964	0.08545727136431784	
1.7089486504925603E12	2.2065217391304346	-6.380434782608695	3.6630434782608696	3948.7179487179483	128.0	128.0	-0.9763826103666557	9.879869804366805	8.90348719400015	500.6844300847567	134.81515762986632	-1.6030534351145038	7.572519083969465	0.42748091603053434	-0.04497751124437781	0.4197901049475262	0.09295352323838081	
1.708948650512092E12	2.2391304347826084	-6.369565217391304	3.5760869565217392	3951.6483516483513	128.0	128.0	-0.9747238129048125	9.880158290881909	8.905434477977096	500.68053551680276	134.7377711221899	-2.6717557251908395	5.694656488549618	0.7786259541984732	-0.05247376311844078	0.43178410794602695	0.07796101949025487	
1.7089486505316235E12	2.1956521739130435	-6.423913043478261	3.608695652173913	3950.18315018315	128.0	128.0	-0.9849650841909748	9.884846196752335	8.89988111256136	500.69157012600544	134.82568738766759	-2.931297709923664	6.534351145038167	0.6564885496183206	-0.05997001499250375	0.43928035982008995	0.08545727136431784	
1.7089486505511553E12	2.217391304347826	-6.380434782608695	3.608695652173913	3926.7399267399264	128.0	128.0	-0.9853256923348538	9.876912817586996	8.891587125252142	500.6858725173322	134.74296387946177	-2.8091603053435112	6.183206106870228	0.5190839694656488	-0.041979010494752625	0.4257871064467766	0.07646176911544228	
1.708948650570687E12	2.25	-6.423913043478261	3.5978260869565215	3951.6483516483513	128.0	128.0	-0.975949880594001	9.884341345350904	8.908391464756903	500.6842858414991	134.82669709047045	-2.916030534351145	6.595419847328244	0.6717557251908397	-0.05697151424287856	0.42278860569715143	0.07946026986506746	
1.7089486505902188E12	2.2391304347826084	-6.413043478260869	3.608695652173913	3938.461538461538	128.0	128.0	-0.984892962562199	9.869267924936763	8.884374962374563	500.68392523335524	134.74260327131788	-2.595419847328244	6.5038167938931295	0.2595419847328244	-0.05547226386806597	0.42728635682158916	0.08545727136431784	
1.7089486506097502E12	2.2391304347826084	-6.369565217391304	3.5978260869565215	3935.531135531135	128.0	128.0	-0.9861911518801633	9.875326141753929	8.889134989873765	500.6800306654013	134.8283558879323	-2.427480916030534	6.137404580152672	0.366412213740458	-0.04497751124437781	0.42728635682158916	0.08845577211394302	
1.708948650629282E12	2.217391304347826	-6.369565217391304	3.5760869565217392	3951.6483516483513	128.0	128.0	-0.9778971645709473	9.871864303572693	8.893967139001745	500.6863052471048	134.97512340249102	-2.6259541984732824	5.740458015267175	0.366412213740458	-0.04047976011994003	0.43478260869565216	0.08545727136431784	
1.7089486506488137E12	2.2391304347826084	-6.33695652173913	3.641304347826087	3951.6483516483513	128.0	128.0	-0.975589272450122	9.844025354865236	8.868436082415114	500.68406947661276	134.8075127372161	-2.5038167938931295	5.740458015267175	0.42748091603053434	-0.034482758620689655	0.4287856071964018	0.07346326836581708	
1.7089486506683455E12	2.2065217391304346	-6.358695652173913	3.619565217391304	3950.18315018315	128.0	128.0	-0.9890038954024191	9.852463585432004	8.863459690029584	500.68241067915096	134.98579740354984	-2.946564885496183	5.603053435114504	0.2748091603053435	-0.031484257871064465	0.4332833583208396	0.08695652173913043	
1.7089486506878772E12	2.2391304347826084	-6.369565217391304	3.5978260869565215	3941.391941391941	128.0	128.0	-0.972488042412763	9.84395323323646	8.871465190823697	500.67570336767477	134.79755995244503	-3.2213740458015265	5.938931297709924	0.5343511450381679	-0.05697151424287856	0.4287856071964018	0.08695652173913043	
1.7089486507074087E12	2.25	-6.391304347826087	3.641304347826087	3948.7179487179483	128.0	128.0	-0.9478224453714426	9.864796383952665	8.916973938581222	500.6837088684689	134.97988342999022	-2.916030534351145	6.091603053435114	0.5801526717557252	-0.05547226386806597	0.42728635682158916	0.08095952023988005	
1.7089486507269404E12	2.25	-6.369565217391304	3.6630434782608696	3950.18315018315	128.0	128.0	-0.9340472142752665	9.852535707060781	8.918488492785514	500.6881082878242	134.80354604763343	-2.900763358778626	5.770992366412213	0.5801526717557252	-0.034482758620689655	0.4287856071964018	0.07946026986506746	
1.7089486507464722E12	2.25	-6.369565217391304	3.652173913043478	3950.18315018315	128.0	128.0	-0.9357060117371097	9.880879507169666	8.945173495432556	500.6803191519164	134.98882651195842	-3.3435114503816794	5.816793893129771	0.8244274809160305	-0.05247376311844078	0.424287856071964	0.08095952023988005	
1.708948650766004E12	2.2717391304347827	-6.380434782608695	3.6304347826086953	3934.065934065934	128.0	128.0	-0.9715504612386777	9.871143087284935	8.899592626046257	500.67541488115967	134.83383713171926	-2.9923664122137406	5.877862595419847	0.6106870229007634	-0.047976011994003	0.42728635682158916	0.08845577211394302	
1.7089486507855356E12	2.25	-6.369565217391304	3.5978260869565215	3950.18315018315	128.0	128.0	-0.9781135294572747	9.84121261134298	8.863099081885705	500.6676978668807	134.9873840793829	-3.0534351145038165	6.534351145038167	1.0229007633587786	-0.04947526236881559	0.42278860569715143	0.08395802098950525	
1.7089486508050671E12	2.2717391304347827	-6.3478260869565215	3.608695652173913	3950.18315018315	128.0	128.0	-0.9946293824469308	9.854843599181605	8.860214216734674	500.6673372587368	135.06282330308238	-3.0534351145038165	5.740458015267175	0.6259541984732824	-0.05247376311844078	0.424287856071964	0.08545727136431784	
1.7089486508245989E12	2.260869565217391	-6.369565217391304	3.619565217391304	3948.7179487179483	128.0	128.0	-0.9908790577505896	9.856358153385896	8.865479095635306	500.6933731667249	134.96870457753	-3.297709923664122	5.969465648854961	0.7633587786259541	-0.03298350824587706	0.42728635682158916	0.08095952023988005	
1.7089486508441306E12	2.260869565217391	-6.413043478260869	3.652173913043478	3950.18315018315	128.0	128.0	-0.9923936119548813	9.860901815998771	8.86850820404389	500.69034405831627	135.06029904607524	-2.8702290076335877	6.549618320610687	0.549618320610687	-0.04497751124437781	0.42728635682158916	0.07496251874062969	
1.7089486508636624E12	2.260869565217391	-6.380434782608695	3.5978260869565215	3947.252747252747	128.0	128.0	-1.0218913581241797	9.916002740383476	8.894111382259297	500.6794536923711	135.04097044956333	-2.7022900763358777	6.091603053435114	0.6717557251908397	-0.05247376311844078	0.424287856071964	0.09895052473763118	
1.7089486508831938E12	2.282608695652174	-6.4021739130434785	3.6630434782608696	3950.18315018315	128.0	128.0	-0.6605619979574678	10.271922978392002	9.611360980434535	500.67541488115967	134.99870717510072	-2.6564885496183206	6.916030534351145	0.564885496183206	-0.04047976011994003	0.4497751124437781	0.09295352323838081	
1.7089486509027256E12	2.282608695652174	-6.391304347826087	3.5869565217391304	3948.7179487179483	128.0	128.0	-0.907362211628224	9.926460376555966	9.019098164927742	500.6803191519164	135.0070732840387	-2.946564885496183	5.450381679389313	0.8091603053435115	-0.029985007496251874	0.43178410794602695	0.08545727136431784	
1.7089486509222573E12	2.2717391304347827	-6.33695652173913	3.467391304347826	3932.6007326007325	128.0	128.0	-0.9683049879437672	9.905545104210987	8.937240116267219	500.6814009763481	135.06837666849813	-4.824427480916031	4.137404580152672	0.6870229007633587	-0.038980509745127435	0.41529235382308843	0.07646176911544228	
1.708948650941789E12	2.0543478260869565	-6.413043478260869	4.0	3951.6483516483513	128.0	128.0	-0.9807820297219789	9.937206499243558	8.95642446952158	500.68176158449194	134.92413341094655	-3.6946564885496183	10.091603053435113	0.5343511450381679	-0.04497751124437781	0.4197901049475262	0.07796101949025487	
1.7089486509613208E12	2.3369565217391304	-6.380434782608695	3.391304347826087	3951.6483516483513	128.0	128.0	-0.9798444485478937	9.926820984699845	8.94697653615195	500.6838531117265	135.06722272243772	-2.2748091603053435	5.862595419847328	1.2671755725190839	-0.05247376311844078	0.43178410794602695	0.09295352323838081	
1.7089486509808523E12	2.1956521739130435	-6.326086956521739	3.684782608695652	3950.18315018315	128.0	128.0	-0.9642661767323228	9.915353645724494	8.95108746899217	500.6819779493783	134.940072290906	-1.984732824427481	9.099236641221374	1.1603053435114503	-0.046476761619190406	0.4332833583208396	0.0944527736131934	
1.708948651000384E12	2.25	-6.369565217391304	3.510869565217391	3950.18315018315	128.0	128.0	-0.9737141101019514	9.942976229545621	8.96926211944367	500.6631542042678	135.0698912227024	-5.0534351145038165	6.65648854961832	1.7099236641221374	-0.05697151424287856	0.43628185907046474	0.07946026986506746	
1.7089486510199158E12	2.2065217391304346	-6.423913043478261	3.7391304347826084	3925.274725274725	128.0	128.0	-0.968016501428664	9.966343637268977	8.998327135840313	500.65666325767796	134.96690153681058	-5.6183206106870225	6.870229007633587	1.0534351145038168	-0.05247376311844078	0.4197901049475262	0.08095952023988005	
1.7089486510394475E12	2.2391304347826084	-6.4021739130434785	3.6304347826086953	3948.7179487179483	128.0	128.0	-0.9476060804851152	9.992668031772142	9.045061951287027	500.656014163019	135.06174147865076	-3.5572519083969465	4.809160305343512	0.7480916030534351	-0.04497751124437781	0.42728635682158916	0.08095952023988005	
1.7089486510589792E12	2.282608695652174	-6.423913043478261	3.652173913043478	3951.6483516483513	128.0	128.0	-0.9295756732911675	10.017622115328564	9.088046442037397	500.6539947574133	134.96185302279628	-3.6488549618320607	6.366412213740458	0.6564885496183206	-0.047976011994003	0.424287856071964	0.08095952023988005	
1.7089486510785107E12	2.282608695652174	-6.391304347826087	3.532608695652174	3934.065934065934	128.0	128.0	-0.9133483068166145	10.03788829301456	9.124539986197947	500.6494510948004	134.82878861770496	-2.8702290076335877	6.534351145038167	0.9770992366412213	-0.038980509745127435	0.4257871064467766	0.08395802098950525	
1.7089486510980425E12	2.25	-6.369565217391304	3.619565217391304	3951.6483516483513	128.0	128.0	-0.8658922750821442	10.105538380806253	9.239646105724109	500.628030971054	134.98853802544332	-2.6412213740458013	7.175572519083969	1.3587786259541985	-0.05997001499250375	0.42728635682158916	0.08845577211394302	
1.7089486511175742E12	2.2282608695652173	-6.3478260869565215	3.5978260869565215	3951.6483516483513	128.0	128.0	-0.8508188546680039	10.140877978906392	9.290059124238388	500.6338728229848	134.81948492759287	-3.5572519083969465	6.229007633587786	1.4045801526717556	-0.031484257871064465	0.43628185907046474	0.08695652173913043	
1.708948651137106E12	2.2065217391304346	-6.391304347826087	3.619565217391304	3950.18315018315	128.0	128.0	-0.8599783015225294	10.153138655798276	9.293160354275747	500.6366855665071	134.9683439693861	-3.3435114503816794	7.038167938931298	1.0229007633587786	-0.034482758620689655	0.4287856071964018	0.07946026986506746	
1.7089486511566375E12	2.2282608695652173	-6.380434782608695	3.5869565217391304	3950.18315018315	128.0	128.0	-0.9127713337864082	10.113399638342814	9.200628304556407	500.6343055527575	134.81140730516998	-3.297709923664122	6.5038167938931295	0.9770992366412213	-0.05397301349325337	0.41529235382308843	0.10194902548725637	
1.7089486511761692E12	2.2717391304347827	-6.391304347826087	3.641304347826087	3926.7399267399264	128.0	128.0	-0.9468848641973573	9.986177085182321	9.039292220984963	500.62615580870585	134.98947560661742	-3.5725190839694654	7.022900763358779	1.099236641221374	-0.034482758620689655	0.4287856071964018	0.07346326836581708	
1.708948651195701E12	2.217391304347826	-6.4021739130434785	3.641304347826087	3951.6483516483513	128.0	128.0	-0.9696031772617314	9.962737555830188	8.993134378568456	500.62868006571296	134.83564017243864	-3.2213740458015265	6.809160305343511	1.083969465648855	-0.025487256371814093	0.42728635682158916	0.0704647676161919	
1.7089486512152327E12	2.217391304347826	-6.4021739130434785	3.619565217391304	3950.18315018315	128.0	128.0	-0.975949880594001	9.921628227427988	8.945678346833986	500.6274539980238	135.00159204025175	-3.3740458015267176	6.778625954198473	0.8091603053435115	-0.047976011994003	0.43478260869565216	0.0704647676161919	
1.7089486512347644E12	2.25	-6.413043478260869	3.5869565217391304	3931.135531135531	128.0	128.0	-0.9905905712354864	9.93922590484928	8.948635333613794	500.6259394438195	134.8212158466835	-2.351145038167939	6.259541984732824	0.7938931297709924	-0.04497751124437781	0.43178410794602695	0.08845577211394302	
1.708948651254296E12	2.2282608695652173	-6.358695652173913	3.5869565217391304	3951.6483516483513	128.0	128.0	-0.9794838404040147	9.909079064021	8.929595223616985	500.620963051434	134.82518253626617	-1.5114503816793892	5.938931297709924	1.0687022900763359	-0.04497751124437781	0.424287856071964	0.08545727136431784	
1.7089486512738276E12	2.1956521739130435	-6.315217391304348	3.6739130434782608	3950.18315018315	128.0	128.0	-0.9824408271838221	9.944346540492361	8.96190571330854	500.63199766063667	134.8406165648242	-2.6412213740458013	8.366412213740457	0.7938931297709924	-0.05697151424287856	0.4407796101949025	0.08395802098950525	
1.7089486512933594E12	2.25	-6.4021739130434785	3.641304347826087	3950.18315018315	128.0	128.0	-0.97905111063136	9.939658634621935	8.960607523990575	500.62730975476626	134.83326015868906	-3.0534351145038165	7.0534351145038165	1.114503816793893	-0.04497751124437781	0.43178410794602695	0.09295352323838081	
1.708948651312891E12	2.260869565217391	-6.369565217391304	3.6304347826086953	3950.18315018315	128.0	128.0	-0.9874172195693517	9.962665434201412	8.97524821463206	500.6387049721128	134.8691767298194	-2.4732824427480917	7.114503816793893	1.083969465648855	-0.038980509745127435	0.4287856071964018	0.08395802098950525	
1.7089486513324229E12	2.217391304347826	-6.4021739130434785	3.6630434782608696	3950.18315018315	128.0	128.0	-0.97905111063136	9.980263111622705	9.001212000991345	500.6363249583632	134.8321783342574	-3.129770992366412	7.694656488549618	0.9312977099236641	-0.05247376311844078	0.43478260869565216	0.07496251874062969	
1.7089486513519543E12	2.2391304347826084	-6.413043478260869	3.6304347826086953	3950.18315018315	128.0	128.0	-0.971117731466023	9.949395054506667	8.978277323040643	500.6578893253672	134.8551130122081	-3.1908396946564883	7.2824427480916025	0.8396946564885496	-0.05397301349325337	0.4287856071964018	0.08695652173913043	
1.708948651371486E12	2.2065217391304346	-6.358695652173913	3.6739130434782608	3950.18315018315	128.0	128.0	-0.9851093274485264	9.956823582270573	8.971714254822047	500.65312929786796	134.83347652357537	-2.748091603053435	7.511450381679389	0.7786259541984732	-0.04047976011994003	0.43178410794602695	0.08845577211394302	
1.7089486513910178E12	2.2065217391304346	-6.380434782608695	3.6304347826086953	3931.135531135531	128.0	128.0	-0.9825850704413737	9.963819380261825	8.98123430982045	500.665678461275	134.9915671338519	-2.8244274809160306	7.083969465648854	0.916030534351145	-0.038980509745127435	0.4407796101949025	0.07346326836581708	
1.7089486514105496E12	2.217391304347826	-6.369565217391304	3.5978260869565215	3951.6483516483513	128.0	128.0	-0.9761662454803284	9.949755662650546	8.973589417170217	500.6429601482106	134.8279952797884	-2.946564885496183	6.809160305343511	1.099236641221374	-0.04047976011994003	0.42728635682158916	0.08095952023988005	
1.708948651430081E12	2.2065217391304346	-6.369565217391304	3.5869565217391304	3951.6483516483513	128.0	128.0	-0.9819359757823916	9.961872096284878	8.979936120502487	500.6425995400667	134.97173368593857	-3.633587786259542	6.946564885496183	0.8549618320610687	-0.037481259370314844	0.42728635682158916	0.09895052473763118	
1.7089486514496128E12	2.25	-6.391304347826087	3.5978260869565215	3950.18315018315	128.0	128.0	-0.9853978139636296	9.963170285602843	8.977772471639213	500.64757593245224	134.83326015868906	-2.931297709923664	6.99236641221374	1.099236641221374	-0.046476761619190406	0.4287856071964018	0.08695652173913043	
1.7089486514691445E12	2.2282608695652173	-6.380434782608695	3.6304347826086953	3936.9963369963366	128.0	128.0	-0.9716225828674535	9.957544798558331	8.985922215690877	500.65680750093554	134.9614924146524	-3.2519083969465647	7.221374045801526	1.0534351145038168	-0.04947526236881559	0.41829085457271364	0.09745127436281859	
1.7089486514886763E12	2.217391304347826	-6.369565217391304	3.608695652173913	3926.7399267399264	128.0	128.0	-0.985614178849957	9.965838785867547	8.98022460701759	500.6635148124117	134.83124075308334	-3.114503816793893	6.8396946564885495	1.099236641221374	-0.037481259370314844	0.43178410794602695	0.08845577211394302	
1.708948651508208E12	2.2282608695652173	-6.391304347826087	3.6304347826086953	3950.18315018315	128.0	128.0	-0.9799165701766694	9.958121771588537	8.978205201411868	500.6581778118823	134.9549293464338	-3.068702290076336	6.717557251908397	0.6717557251908397	-0.06146926536731634	0.44377811094452774	0.0944527736131934	
1.7089486515277395E12	2.2065217391304346	-6.380434782608695	3.652173913043478	3951.6483516483513	128.0	128.0	-0.9873450979405759	9.96425211003448	8.976907012093903	500.65623052790534	135.09881199584152	-3.3435114503816794	7.099236641221374	0.6717557251908397	-0.05697151424287856	0.4287856071964018	0.07946026986506746	
1.7089486515472712E12	2.217391304347826	-6.380434782608695	3.619565217391304	3931.135531135531	128.0	128.0	-0.9737141101019514	9.973916408290435	9.000202298188483	500.65579779813265	134.956155414123	-3.0839694656488548	6.5038167938931295	0.549618320610687	-0.05697151424287856	0.43628185907046474	0.08995502248875561	
1.708948651566803E12	2.2391304347826084	-6.380434782608695	3.6304347826086953	3951.6483516483513	128.0	128.0	-0.9808541513507547	9.981561300940669	9.000707149589914	500.65168686529245	135.09275377902435	-3.3587786259541983	6.854961832061068	0.7786259541984732	-0.031484257871064465	0.41079460269865065	0.08395802098950525	
1.7089486515863347E12	2.217391304347826	-6.391304347826087	3.6304347826086953	3950.18315018315	128.0	128.0	-0.9555394596504522	10.025988224266557	9.070448764616104	500.6509656490047	134.95384752200218	-3.1908396946564883	6.702290076335878	0.8549618320610687	-0.05247376311844078	0.42728635682158916	0.09295352323838081	
1.7089486516058665E12	2.217391304347826	-6.4021739130434785	3.641304347826087	3950.18315018315	128.0	128.0	-0.9168101449978525	9.989711044992333	9.072900899994481	500.6507492841184	135.07681489906489	-3.0839694656488548	6.3206106870229	0.9770992366412213	-0.047976011994003	0.41379310344827586	0.08545727136431784	
1.708948651625398E12	2.2391304347826084	-6.380434782608695	3.6304347826086953	3950.18315018315	128.0	128.0	-0.9287823353746337	10.022454264456542	9.093671929081909	500.65197535180755	134.94757294029867	-3.5114503816793894	6.290076335877862	0.6106870229007634	-0.046476761619190406	0.4407796101949025	0.09745127436281859	
1.7089486516449297E12	2.2282608695652173	-6.4021739130434785	3.641304347826087	3945.7875457875457	128.0	128.0	-0.9468127425685815	10.015602709722843	9.068789967154261	500.64541228358894	135.09664834697824	-3.3893129770992365	6.1679389312977095	0.3053435114503817	-0.03298350824587706	0.42728635682158916	0.08545727136431784	
1.7089486516644614E12	2.217391304347826	-6.380434782608695	3.608695652173913	3950.18315018315	128.0	128.0	-0.9855420572211812	9.974565502949417	8.989023445728236	500.6580335686247	134.94447171026133	-3.114503816793893	6.763358778625954	0.47328244274809156	-0.047976011994003	0.42728635682158916	0.08545727136431784	
1.7089486516839932E12	2.2282608695652173	-6.380434782608695	3.5760869565217392	3950.18315018315	128.0	128.0	-0.9771759482831894	9.972401854086144	8.995225905802954	500.66163965006353	135.08611858917698	-3.312977099236641	6.458015267175572	0.6412213740458015	-0.05997001499250375	0.4197901049475262	0.07796101949025487	
1.708948651703525E12	2.2282608695652173	-6.4021739130434785	3.6304347826086953	3929.6703296703295	128.0	128.0	-0.9838111381305622	9.977161881585346	8.993350743454783	500.65853842002616	135.07544458811816	-3.2061068702290076	6.3206106870229	0.6106870229007634	-0.037481259370314844	0.42728635682158916	0.07796101949025487	
1.7089486517230564E12	2.217391304347826	-6.391304347826087	3.6630434782608696	3951.6483516483513	128.0	128.0	-0.9948457473332581	9.982931611887409	8.98808586455415	500.6604135823743	135.12405456591304	-2.916030534351145	6.931297709923664	0.9465648854961831	-0.05247376311844078	0.424287856071964	0.095952023988006	
1.7089486517425881E12	2.2391304347826084	-6.391304347826087	3.619565217391304	3950.18315018315	128.0	128.0	-1.003572464415129	9.998870491846858	8.99529802743173	500.6404358912034	135.08373857542736	-2.549618320610687	6.854961832061068	1.0381679389312977	-0.04497751124437781	0.424287856071964	0.08845577211394302	
1.7089486517621199E12	2.260869565217391	-6.4021739130434785	3.652173913043478	3950.18315018315	128.0	128.0	-0.5326903501379908	10.568991967319485	10.036301617181495	500.6442583375285	134.98853802544332	-2.931297709923664	7.312977099236641	0.8396946564885496	-0.06596701649175413	0.4287856071964018	0.07946026986506746	
1.7089486517816516E12	2.2282608695652173	-6.391304347826087	3.543478260869565	3950.18315018315	128.0	128.0	-0.7741535632793384	10.215523864689334	9.441370301409997	500.6480807838537	135.04407167960068	-2.900763358778626	6.442748091603053	0.9312977099236641	-0.05247376311844078	0.42728635682158916	0.09295352323838081	
1.708948651801183E12	2.2065217391304346	-6.358695652173913	3.5760869565217392	3950.18315018315	128.0	128.0	-0.9560443110518827	10.026348832410436	9.070304521358553	500.6527686897241	135.09693683349334	-4.442748091603053	3.3893129770992365	0.7175572519083969	-0.046476761619190406	0.41529235382308843	0.07946026986506746	
1.7089486518207148E12	2.0760869565217392	-6.434782608695652	3.934782608695652	3950.18315018315	128.0	128.0	-0.9657807309366144	10.021011831881028	9.055231100944413	500.64187832377894	135.1203042412167	-3.7404580152671754	10.549618320610687	0.5343511450381679	-0.05547226386806597	0.43478260869565216	0.08545727136431784	
1.7089486518402466E12	2.3478260869565215	-6.391304347826087	3.4239130434782608	3951.6483516483513	128.0	128.0	-0.9626795008992555	10.01978576419184	9.057106263292583	500.644114094271	134.93509589852047	-1.618320610687023	5.877862595419847	1.0534351145038168	-0.047976011994003	0.424287856071964	0.08545727136431784	
1.7089486518597783E12	2.0760869565217392	-6.434782608695652	3.934782608695652	3950.18315018315	128.0	128.0	-0.9658528525653902	10.021516683282458	9.055663830717068	500.6304831064324	135.10198534750765	-0.9923664122137404	9.618320610687023	1.0381679389312977	-0.037481259370314844	0.43478260869565216	0.08095952023988005	
1.70894865187931E12	2.2717391304347827	-6.380434782608695	3.5	3953.113553113553	128.0	128.0	-0.9671510418833544	10.037383441613132	9.070232399729777	500.61865515931316	134.9141806261755	-4.366412213740458	6.366412213740458	1.2366412213740459	-0.0704647676161919	0.424287856071964	0.08545727136431784	
1.7089486518988416E12	2.217391304347826	-6.434782608695652	3.782608695652174	3950.18315018315	128.0	128.0	-0.9574867436273985	10.038248901158441	9.080762157531042	500.62997825503095	135.0514280857358	-4.290076335877862	7.572519083969465	0.6259541984732824	-0.047976011994003	0.43178410794602695	0.08845577211394302	
1.7089486519183733E12	2.2717391304347827	-6.445652173913043	3.652173913043478	3950.18315018315	128.0	128.0	-0.9548903649914701	10.058370835586887	9.103480470595416	500.6303388631748	134.8670852025849	-2.687022900763359	4.854961832061068	0.8244274809160305	-0.046476761619190406	0.41079460269865065	0.07946026986506746	
1.708948651937905E12	2.25	-6.434782608695652	3.7065217391304346	3961.9047619047615	128.0	128.0	-0.9305853760940286	10.089599500846806	9.159014124752776	500.63682980976466	134.96675729355303	-2.763358778625954	6.625954198473282	0.2595419847328244	-0.05397301349325337	0.4287856071964018	0.08995502248875561	
1.7089486519574368E12	2.2717391304347827	-6.369565217391304	3.5869565217391304	3925.274725274725	128.0	128.0	-0.901808846212488	10.108928097358715	9.207119251146228	500.6318534173791	134.80224785831547	-1.9236641221374045	5.572519083969466	0.5343511450381679	-0.05247376311844078	0.43928035982008995	0.08545727136431784	
1.7089486519769685E12	2.1847826086956523	-6.369565217391304	3.619565217391304	3950.18315018315	128.0	128.0	-0.868055923945418	10.136839167694948	9.26878324374953	500.6366855665071	134.66074522265737	-2.1221374045801524	6.641221374045801	0.8702290076335878	-0.05547226386806597	0.43178410794602695	0.08095952023988005	
1.7089486519965E12	2.2065217391304346	-6.358695652173913	3.5978260869565215	3950.18315018315	128.0	128.0	-0.8538479630765872	10.180184266589198	9.32633630351261	500.63740678279487	134.7086339841645	-2.5801526717557253	5.572519083969466	0.9312977099236641	-0.031484257871064465	0.4287856071964018	0.08995502248875561	
1.7089486520160317E12	2.2282608695652173	-6.391304347826087	3.5978260869565215	3929.6703296703295	128.0	128.0	-0.8502418816377976	10.174703022802237	9.32446114116444	500.64122922912	134.5480191168808	-2.9923664122137406	6.091603053435114	1.1755725190839694	-0.038980509745127435	0.4287856071964018	0.0944527736131934	
1.7089486520355635E12	2.217391304347826	-6.369565217391304	3.652173913043478	3951.6483516483513	128.0	128.0	-0.9025300625002459	10.125371828719596	9.22284176621935	500.6382722423402	134.60715885247694	-2.778625954198473	6.519083969465648	1.083969465648855	-0.046476761619190406	0.4287856071964018	0.08695652173913043	
1.7089486520550952E12	2.2391304347826084	-6.380434782608695	3.641304347826087	3950.18315018315	128.0	128.0	-0.9510679186663531	10.029738548962898	9.078670630296545	500.6369019313934	134.5200359249158	-3.282442748091603	6.5038167938931295	0.9465648854961831	-0.04947526236881559	0.41079460269865065	0.08995502248875561	
1.7089486520746267E12	2.2282608695652173	-6.423913043478261	3.6739130434782608	3950.18315018315	128.0	128.0	-0.972127434268884	9.944635027007465	8.97250759273858	500.6265885384785	134.6594470333394	-3.16030534351145	6.030534351145038	0.8091603053435115	-0.031484257871064465	0.43628185907046474	0.08395802098950525	
1.7089486520941584E12	2.217391304347826	-6.4021739130434785	3.6630434782608696	3948.7179487179483	128.0	128.0	-0.9789789890025842	9.914199699664081	8.935220710661497	500.6296176468871	134.553428239039	-2.8702290076335877	6.061068702290076	0.7633587786259541	-0.05247376311844078	0.42728635682158916	0.08095952023988005	
1.7089486521136902E12	2.25	-6.434782608695652	3.5978260869565215	3925.274725274725	128.0	128.0	-0.9879220709707822	9.886937723986833	8.89901565301605	500.6358201069618	134.67271741303415	-2.7022900763358777	4.99236641221374	0.6259541984732824	-0.05247376311844078	0.424287856071964	0.09295352323838081	
1.708948652133222E12	2.2717391304347827	-6.380434782608695	3.608695652173913	3950.18315018315	128.0	128.0	-0.9787626241162568	9.85989211319591	8.881129489079653	500.6473595675659	134.5584767530533	-0.5801526717557252	5.770992366412213	0.8396946564885496	-0.04947526236881559	0.43628185907046474	0.09745127436281859	
1.7089486521527537E12	2.2065217391304346	-6.33695652173913	3.717391304347826	3951.6483516483513	128.0	128.0	-0.9807820297219789	9.858666045506721	8.877884015784742	500.6422389319228	134.65670641144592	-1.282442748091603	7.2824427480916025	0.9618320610687022	-0.047976011994003	0.43478260869565216	0.08545727136431784	
1.7089486521722852E12	2.1956521739130435	-6.358695652173913	3.619565217391304	3928.205128205128	128.0	128.0	-0.9877778277132306	9.87446068220862	8.886682854495389	500.6369740530222	134.60838492016615	-3.129770992366412	7.923664122137405	0.8396946564885496	-0.04497751124437781	0.43178410794602695	0.08545727136431784	
1.708948652191817E12	2.2391304347826084	-6.369565217391304	3.619565217391304	3923.8095238095234	128.0	128.0	-0.9830178002140284	9.863570316263475	8.880552516049447	500.63978679654446	134.67415984560967	-2.5343511450381677	7.633587786259541	1.1450381679389312	-0.041979010494752625	0.4332833583208396	0.08995502248875561	
1.7089486522113486E12	2.2391304347826084	-6.4021739130434785	3.7282608695652173	3951.6483516483513	128.0	128.0	-0.9740747182458304	9.852463585432004	8.878388867186173	500.6415177156351	134.60174973031877	-3.114503816793893	8.244274809160306	0.8244274809160305	-0.04947526236881559	0.41829085457271364	0.08695652173913043	
1.7089486522308804E12	2.217391304347826	-6.434782608695652	3.608695652173913	3950.18315018315	128.0	128.0	-0.9820080974111673	9.843664746721357	8.86165664931019	500.63618071510564	134.69312783397768	-3.801526717557252	7.221374045801526	0.8244274809160305	-0.034482758620689655	0.4482758620689655	0.0944527736131934	
1.708948652250412E12	2.1630434782608696	-6.423913043478261	3.7065217391304346	3951.6483516483513	128.0	128.0	-0.9902299630916075	9.83349559706397	8.843265633972363	500.6358201069618	134.62944443576868	-2.610687022900763	7.786259541984733	0.7938931297709924	-0.046476761619190406	0.4332833583208396	0.08995502248875561	
1.7089486522699436E12	2.2282608695652173	-6.369565217391304	3.652173913043478	3928.205128205128	128.0	128.0	-0.9910233010081412	9.814816095211041	8.8237927942029	500.62529034916054	134.7097879302249	-2.4122137404580153	7.129770992366412	1.0687022900763359	-0.04947526236881559	0.43628185907046474	0.0944527736131934	
1.7089486522894753E12	2.2391304347826084	-6.358695652173913	3.608695652173913	3950.18315018315	128.0	128.0	-0.9816474892672884	9.798516607107713	8.816869117840424	500.6350267690452	134.88749562352845	-2.8091603053435112	7.114503816793893	0.9923664122137404	-0.041979010494752625	0.4287856071964018	0.08395802098950525	
1.708948652309007E12	2.260869565217391	-6.391304347826087	3.652173913043478	3950.18315018315	128.0	128.0	-0.9801329350629968	9.785174105784192	8.805041170721195	500.62911279548564	134.75666698892917	-2.595419847328244	7.526717557251908	0.7480916030534351	-0.05697151424287856	0.4257871064467766	0.0944527736131934	
1.7089486523285388E12	2.25	-6.369565217391304	3.6739130434782608	3928.205128205128	128.0	128.0	-0.984892962562199	9.761806698060836	8.776913735498637	500.62968976851585	134.9141806261755	-2.045801526717557	7.419847328244274	0.7633587786259541	-0.05547226386806597	0.4197901049475262	0.08845577211394302	
1.7089486523480703E12	2.25	-6.4021739130434785	3.6956521739130435	3923.8095238095234	128.0	128.0	-0.9865517600240422	9.738944141738909	8.752392381714866	500.6301946199173	134.7768610449864	-1.9389312977099236	7.32824427480916	0.5954198473282443	-0.046476761619190406	0.4407796101949025	0.08995502248875561	
1.708948652367602E12	2.25	-6.391304347826087	3.6630434782608696	3951.6483516483513	128.0	128.0	-0.9897972333189528	9.73411199261093	8.744314759291978	500.64317651309693	134.94649111586705	-2.16793893129771	6.946564885496183	0.47328244274809156	-0.04047976011994003	0.43178410794602695	0.08095952023988005	
1.7089486523871338E12	2.217391304347826	-6.3478260869565215	3.7282608695652173	3950.18315018315	128.0	128.0	-0.9840275030168896	9.704686368070409	8.720658865053519	500.6371904179085	134.79128537074155	-2.16793893129771	7.007633587786259	0.6717557251908397	-0.04047976011994003	0.4197901049475262	0.07496251874062969	
1.7089486524066655E12	2.2282608695652173	-6.380434782608695	3.641304347826087	3950.18315018315	128.0	128.0	-0.9921772470685539	9.692281447920973	8.700104200852419	500.6470710810508	134.9410098720801	-2.3664122137404577	6.442748091603053	0.549618320610687	-0.034482758620689655	0.42278860569715143	0.08395802098950525	
1.7089486524261973E12	2.217391304347826	-6.369565217391304	3.717391304347826	3928.205128205128	128.0	128.0	-0.9881384358571096	9.67417891909825	8.68604048324114	500.6485135136263	134.98493194400453	-2.4885496183206106	7.0534351145038165	0.549618320610687	-0.04497751124437781	0.43178410794602695	0.0704647676161919	
1.7089486524457288E12	2.260869565217391	-6.33695652173913	3.684782608695652	3950.18315018315	128.0	128.0	-0.9847487193046475	9.65362425489715	8.668875535592502	500.6500280678306	134.9504578054497	-2.519083969465649	6.671755725190839	0.5954198473282443	-0.04497751124437781	0.43178410794602695	0.08095952023988005	
1.7089486524652605E12	2.260869565217391	-6.33695652173913	3.6956521739130435	3950.18315018315	128.0	128.0	-0.9781135294572747	9.659682471714316	8.68156894225704	500.65558143324637	135.01262664945443	-3.099236641221374	6.717557251908397	0.4580152671755725	-0.046476761619190406	0.41829085457271364	0.0944527736131934	
1.7089486524847922E12	2.2391304347826084	-6.391304347826087	3.717391304347826	3926.7399267399264	128.0	128.0	-0.942485444842034	9.641940551035471	8.699455106193437	500.65240808158023	134.95803057647117	-3.3740458015267176	6.748091603053435	0.48854961832061067	-0.04047976011994003	0.42728635682158916	0.08845577211394302	
1.708948652504324E12	2.2282608695652173	-6.358695652173913	3.717391304347826	3951.6483516483513	128.0	128.0	-0.956621284082089	9.647205429936104	8.690584145854015	500.64274378332425	135.00851571661423	-2.946564885496183	5.9541984732824424	0.7938931297709924	-0.04947526236881559	0.43628185907046474	0.07946026986506746	
1.7089486525238557E12	2.217391304347826	-6.391304347826087	3.717391304347826	3950.18315018315	128.0	128.0	-0.9939802877879487	9.650450903231015	8.656470615443066	500.6449795538163	134.97707068646798	-2.9770992366412212	6.351145038167939	0.6106870229007634	-0.03298350824587706	0.42728635682158916	0.08095952023988005	
1.7089486525433872E12	2.2391304347826084	-6.369565217391304	3.6630434782608696	3950.18315018315	128.0	128.0	-1.0070343025963668	9.598811817027547	8.59177751443118	500.6343055527575	135.04147530096475	-3.1755725190839694	6.6106870229007635	0.549618320610687	-0.03298350824587706	0.43478260869565216	0.08095952023988005	
1.708948652562919E12	2.25	-6.369565217391304	3.684782608695652	3950.18315018315	128.0	128.0	-1.0150398033904795	9.566284962449666	8.551245159059187	500.6444025807861	134.98846590381456	-3.0839694656488548	6.809160305343511	0.8549618320610687	-0.038980509745127435	0.42278860569715143	0.0944527736131934	
1.7089486525824507E12	2.2282608695652173	-6.369565217391304	3.7065217391304346	3950.18315018315	128.0	128.0	-1.021098020207646	9.578762004227878	8.557663984020232	500.64671047290693	135.03700375998065	-3.099236641221374	6.045801526717557	0.6412213740458015	-0.04047976011994003	0.4197901049475262	0.08095952023988005	
1.7089486526019824E12	2.2065217391304346	-6.3478260869565215	3.684782608695652	3948.7179487179483	128.0	128.0	-1.0263628991082787	9.560082502374948	8.53371960326667	500.65024443271693	134.92449401909042	-2.8244274809160306	6.519083969465648	0.7480916030534351	-0.04947526236881559	0.41829085457271364	0.07946026986506746	
1.708948652621514E12	2.2717391304347827	-6.3478260869565215	3.6739130434782608	3950.18315018315	128.0	128.0	-1.0558606452775772	9.569386192487023	8.513525547209447	500.6479365405961	135.06924212804344	-2.4885496183206106	6.870229007633587	0.6870229007633587	-0.05397301349325337	0.4407796101949025	0.06896551724137931	
1.7089486526410457E12	2.260869565217391	-6.358695652173913	3.7717391304347827	3926.7399267399264	128.0	128.0	-0.7806445098691595	9.822677352747602	9.042032842878443	500.6459171349904	134.9006938815944	-2.717557251908397	7.480916030534351	0.7938931297709924	-0.047976011994003	0.4197901049475262	0.08095952023988005	
1.7089486526605774E12	2.260869565217391	-6.358695652173913	3.6630434782608696	3951.6483516483513	128.0	128.0	-0.9374369308277287	9.685357771558497	8.747920840730767	500.64404197264224	135.06260693819607	-2.931297709923664	6.809160305343511	0.9465648854961831	-0.05397301349325337	0.43628185907046474	0.07646176911544228	
1.7089486526801091E12	2.2391304347826084	-6.304347826086956	3.467391304347826	3950.18315018315	128.0	128.0	-1.0087652216869858	9.527411404539514	8.518646182852528	500.64519591870265	134.97274338874143	-4.977099236641221	1.3435114503816794	0.6564885496183206	-0.038980509745127435	0.4257871064467766	0.07346326836581708	
1.7089486526996409E12	2.0652173913043477	-6.3478260869565215	4.119565217391305	3950.18315018315	128.0	128.0	-1.0270119937672608	9.570251652032335	8.543239658265074	500.6530571762392	135.10083140144724	-4.152671755725191	11.755725190839694	0.3969465648854962	-0.034482758620689655	0.4332833583208396	0.07946026986506746	
1.7089486527191724E12	2.380434782608696	-6.33695652173913	3.3478260869565215	3950.18315018315	128.0	128.0	-1.027661088426243	9.55525035324697	8.527589264820728	500.6416619588926	135.02539217774776	-3.480916030534351	3.9541984732824424	0.732824427480916	-0.04947526236881559	0.41529235382308843	0.08395802098950525	
1.708948652738704E12	2.217391304347826	-6.3478260869565215	3.8369565217391304	3929.6703296703295	128.0	128.0	-1.0316998996376872	9.560515232147603	8.528815332509916	500.6532014194967	134.9557948059791	-3.49618320610687	10.870229007633588	1.1450381679389312	-0.041979010494752625	0.42278860569715143	0.08395802098950525	
1.7089486527582358E12	2.293478260869565	-6.33695652173913	3.619565217391304	3950.18315018315	128.0	128.0	-1.0242713718737808	9.561669178208016	8.537397806334235	500.6568796225643	135.16328873196707	-3.3587786259541983	6.259541984732824	1.1450381679389312	-0.04497751124437781	0.43178410794602695	0.08095952023988005	
1.7089486527777676E12	2.2065217391304346	-6.445652173913043	3.7391304347826084	3951.6483516483513	128.0	128.0	-1.0118664517243448	9.53693145953792	8.525065007813575	500.6638032989268	134.97259914548388	-6.931297709923664	7.3893129770992365	0.9465648854961831	-0.038980509745127435	0.4287856071964018	0.07346326836581708	
1.7089486527972993E12	2.2391304347826084	-6.4021739130434785	3.641304347826087	3928.205128205128	128.0	128.0	-1.0085488568006584	9.566717692222321	8.558168835421663	500.65558143324637	135.14417650034147	-3.6946564885496183	4.625954198473282	0.6717557251908397	-0.038980509745127435	0.43628185907046474	0.09745127436281859	
1.7089486528168308E12	2.2065217391304346	-6.380434782608695	3.684782608695652	3923.8095238095234	128.0	128.0	-0.9991730450598056	9.593330573240587	8.594157528180782	500.64187832377894	134.92434977583287	-2.8244274809160306	6.1679389312977095	0.38167938931297707	-0.05397301349325337	0.4332833583208396	0.08395802098950525	
1.7089486528363625E12	2.25	-6.315217391304348	3.5760869565217392	3948.7179487179483	128.0	128.0	-0.9610928250661881	9.6195107244862	8.658417899420012	500.64699895942204	135.28726581183264	-3.1908396946564883	5.938931297709924	0.564885496183206	-0.046476761619190406	0.4257871064467766	0.08995502248875561	
1.7089486528558943E12	2.25	-6.326086956521739	3.641304347826087	3950.18315018315	128.0	128.0	-0.9306574977228044	9.646844821792225	8.71618732406942	500.63654132324956	135.12787701223814	-3.236641221374046	7.0534351145038165	0.5801526717557252	-0.034482758620689655	0.43628185907046474	0.08995502248875561	
1.708948652875426E12	2.25	-6.33695652173913	3.5869565217391304	3950.18315018315	128.0	128.0	-0.9093094956051703	9.650811511374892	8.741502015769722	500.63646920162074	135.09275377902435	-4.549618320610687	6.229007633587786	1.0229007633587786	-0.034482758620689655	0.4332833583208396	0.06146926536731634	
1.7089486528949575E12	2.2391304347826084	-6.4021739130434785	3.641304347826087	3931.135531135531	128.0	128.0	-0.9315950788968896	9.699133002654673	8.767537923757782	500.6371904179085	135.11633755163402	-4.900763358778626	6.564885496183206	0.8549618320610687	-0.034482758620689655	0.4257871064467766	0.07946026986506746	
1.7089486529144893E12	2.2391304347826084	-6.434782608695652	3.641304347826087	3950.18315018315	128.0	128.0	-0.9737141101019514	9.654345471184907	8.680631361082956	500.64872987851265	135.15499474465784	-4.427480916030534	6.366412213740458	0.6106870229007634	-0.05397301349325337	0.4407796101949025	0.0944527736131934	
1.708948652934021E12	2.25	-6.434782608695652	3.641304347826087	3950.18315018315	128.0	128.0	-1.050090914975514	9.573713490213574	8.52362257523806	500.6464941080206	135.15470625814274	-4.091603053435114	6.595419847328244	0.41221374045801523	-0.038980509745127435	0.4482758620689655	0.07946026986506746	
1.7089486529535527E12	2.25	-6.391304347826087	3.652173913043478	3925.274725274725	128.0	128.0	-1.0655249435335332	9.526257458479103	8.460732514945569	500.64404197264224	135.13559402651717	-3.450381679389313	6.748091603053435	0.7022900763358778	-0.047976011994003	0.43928035982008995	0.08545727136431784	
1.7089486529730845E12	2.2391304347826084	-6.391304347826087	3.5760869565217392	3951.6483516483513	128.0	128.0	-1.074179538986628	9.489186941288347	8.415007402301718	500.64461894567245	135.1280933771245	-3.6488549618320607	6.152671755725191	0.6412213740458015	-0.05397301349325337	0.42278860569715143	0.08995502248875561	
1.708948652992616E12	2.2282608695652173	-6.380434782608695	3.7282608695652173	3950.18315018315	128.0	128.0	-1.0622794702386225	9.47007470966276	8.40779523942414	500.64671047290693	135.0965041037207	-3.236641221374046	7.633587786259541	0.6564885496183206	-0.04497751124437781	0.424287856071964	0.08095952023988005	
1.7089486530121477E12	2.25	-6.315217391304348	3.543478260869565	3948.7179487179483	128.0	128.0	-1.0679049572831343	9.480099616062597	8.412194658779462	500.6358201069618	135.11871756538363	-2.1526717557251906	5.648854961832061	0.8702290076335878	-0.046476761619190406	0.41829085457271364	0.08995502248875561	
1.7089486530316794E12	2.2065217391304346	-6.380434782608695	3.6956521739130435	3950.18315018315	128.0	128.0	-1.0701407277751838	9.496399104165926	8.426258376390741	500.64036376957466	135.10934175364278	-3.9847328244274807	8.290076335877862	1.114503816793893	-0.037481259370314844	0.43928035982008995	0.08845577211394302	
1.7089486530512112E12	2.25	-6.3478260869565215	3.619565217391304	3932.6007326007325	128.0	128.0	-1.0578079292545235	9.473464426215223	8.4156564969607	500.64303226983935	135.25877776846622	-2.763358778625954	7.267175572519084	0.8091603053435115	-0.04047976011994003	0.43178410794602695	0.07796101949025487	
1.708948653070743E12	2.282608695652174	-6.380434782608695	3.641304347826087	3951.6483516483513	128.0	128.0	-1.0752613634182648	9.489042698030795	8.41378133461253	500.63776739093873	135.08496464311656	-3.6488549618320607	7.343511450381679	1.099236641221374	-0.038980509745127435	0.43628185907046474	0.09745127436281859	
1.7089486530902744E12	2.260869565217391	-6.358695652173913	3.6630434782608696	3948.7179487179483	128.0	128.0	-1.0592503618300393	9.467838939170711	8.408588577340673	500.6417340805214	135.24262252362044	-2.748091603053435	8.076335877862595	0.549618320610687	-0.047976011994003	0.43178410794602695	0.08095952023988005	
1.7089486531098062E12	2.217391304347826	-6.358695652173913	3.6739130434782608	3926.7399267399264	128.0	128.0	-1.070068606146408	9.477575359055445	8.407506752909036	500.6462056215055	135.09087861667618	-2.5343511450381677	8.045801526717558	0.366412213740458	-0.04497751124437781	0.424287856071964	0.07796101949025487	
1.708948653129338E12	2.2065217391304346	-6.391304347826087	3.6956521739130435	3951.6483516483513	128.0	128.0	-1.0722322550096817	9.486879049167522	8.41464679415784	500.6458450133616	135.2435601047945	-2.900763358778626	8.778625954198473	0.5954198473282443	-0.05547226386806597	0.43178410794602695	0.08095952023988005	
1.7089486531488696E12	2.2282608695652173	-6.358695652173913	3.608695652173913	3951.6483516483513	128.0	128.0	-1.0818965532656377	9.478585061858306	8.396688508592668	500.63906558025667	135.07515610160306	-2.8091603053435112	6.748091603053435	1.3129770992366412	-0.046476761619190406	0.43628185907046474	0.07946026986506746	
1.7089486531684011E12	2.217391304347826	-6.391304347826087	3.6630434782608696	3950.18315018315	128.0	128.0	-1.069058903343547	9.468632277087247	8.3995733737437	500.64685471616446	135.20836474995193	-3.2213740458015265	7.6183206106870225	0.9465648854961831	-0.04047976011994003	0.4197901049475262	0.095952023988006	
1.7089486531879329E12	2.260869565217391	-6.391304347826087	3.6304347826086953	3953.113553113553	128.0	128.0	-1.0621352269810709	9.457886154399652	8.39575092741858	500.64433045915735	135.34150127667206	-3.450381679389313	7.343511450381679	1.099236641221374	-0.034482758620689655	0.41829085457271364	0.07946026986506746	
1.7089486532074646E12	2.2282608695652173	-6.391304347826087	3.652173913043478	3935.531135531135	128.0	128.0	-1.0694916331162017	9.475483831820947	8.405992198704745	500.6422389319228	135.20627322271744	-3.450381679389313	7.3893129770992365	0.9007633587786259	-0.04947526236881559	0.4257871064467766	0.08395802098950525	
1.7089486532269963E12	2.2391304347826084	-6.391304347826087	3.6739130434782608	3950.18315018315	128.0	128.0	-1.069707998002529	9.469065006859902	8.399357008857372	500.64317651309693	135.326716342773	-2.9770992366412212	7.694656488549618	0.7633587786259541	-0.041979010494752625	0.4287856071964018	0.07946026986506746	
1.708948653246528E12	2.25	-6.369565217391304	3.6304347826086953	3950.18315018315	128.0	128.0	-1.0733862010700943	9.469353493375005	8.39596729230491	500.6510377706335	135.20822050669437	-3.5877862595419847	7.32824427480916	0.38167938931297707	-0.04947526236881559	0.44377811094452774	0.07946026986506746	
1.7089486532660596E12	2.25	-6.358695652173913	3.641304347826087	3926.7399267399264	128.0	128.0	-1.079011688114606	9.466108020080092	8.387096331965486	500.6499559462018	135.34503523648206	-3.16030534351145	7.267175572519084	0.8702290076335878	-0.031484257871064465	0.4287856071964018	0.07646176911544228	
1.7089486532855913E12	2.2065217391304346	-6.3478260869565215	3.6739130434782608	3951.6483516483513	128.0	128.0	-1.0818965532656377	9.490701495492639	8.408804942227	500.6348825257877	135.2051913982858	-3.114503816793893	7.007633587786259	0.41221374045801523	-0.04947526236881559	0.4332833583208396	0.08695652173913043	
1.708948653305123E12	2.2065217391304346	-6.391304347826087	3.6630434782608696	3951.6483516483513	128.0	128.0	-1.075910458077247	9.46733408776928	8.391423629692033	500.63322372832585	135.33652488428652	-3.3893129770992365	6.961832061068702	0.6412213740458015	-0.046476761619190406	0.4287856071964018	0.08395802098950525	
1.7089486533246548E12	2.2282608695652173	-6.4021739130434785	3.6304347826086953	3950.18315018315	128.0	128.0	-1.0635055379278109	9.478368696971977	8.414863159044167	500.6372625395373	135.24673345646065	-3.3435114503816794	7.32824427480916	0.8091603053435115	-0.05397301349325337	0.44377811094452774	0.08695652173913043	
1.7089486533441865E12	2.217391304347826	-6.380434782608695	3.6739130434782608	3951.6483516483513	128.0	128.0	-1.040426616719558	9.501014888407575	8.460588271688017	500.64418621589977	135.30926290860927	-3.16030534351145	6.977099236641221	1.0534351145038168	-0.038980509745127435	0.4257871064467766	0.07946026986506746	
1.708948653363718E12	2.2282608695652173	-6.391304347826087	3.6739130434782608	3935.531135531135	128.0	128.0	-1.0257138044492966	9.495245158105512	8.469531353656215	500.6416619588926	135.23440065794	-3.2061068702290076	6.3206106870229	0.9312977099236641	-0.04047976011994003	0.43178410794602695	0.08845577211394302	
1.7089486533832498E12	2.260869565217391	-6.413043478260869	3.684782608695652	3950.18315018315	128.0	128.0	-1.0500187933467382	9.510246456890876	8.460227663544138	500.63711829627977	135.3067386516021	-3.3740458015267176	6.366412213740458	0.9618320610687022	-0.047976011994003	0.4197901049475262	0.08845577211394302	
1.7089486534027815E12	2.2391304347826084	-6.391304347826087	3.652173913043478	3950.18315018315	128.0	128.0	-1.0763431878499017	9.462357695383751	8.386014507533849	500.64303226983935	135.23533823911407	-3.068702290076336	6.030534351145038	0.8396946564885496	-0.038980509745127435	0.4407796101949025	0.07946026986506746	
1.7089486534223132E12	2.260869565217391	-6.380434782608695	3.641304347826087	3926.7399267399264	128.0	128.0	-1.093436013869764	9.478008088828098	8.384572074958333	500.6506050408608	135.27623120262996	-3.1755725190839694	6.305343511450381	0.8244274809160305	-0.03298350824587706	0.4452773613193403	0.08095952023988005	
1.7089486534418447E12	2.260869565217391	-6.4021739130434785	3.6630434782608696	3951.6483516483513	128.0	128.0	-1.0940851085287462	9.46545892542111	8.371373816892364	500.6475038108235	135.22798183297894	-3.2061068702290076	5.816793893129771	1.0381679389312977	-0.0239880059970015	0.4407796101949025	0.07346326836581708	
1.7089486534613765E12	2.2391304347826084	-6.391304347826087	3.6630434782608696	3951.6483516483513	128.0	128.0	-1.09624875739202	9.459400708603944	8.363151951211924	500.6586105416549	135.2748608916832	-2.9770992366412212	6.1679389312977095	0.8396946564885496	-0.037481259370314844	0.43478260869565216	0.08845577211394302	
1.7089486534809082E12	2.2391304347826084	-6.380434782608695	3.652173913043478	3950.18315018315	128.0	128.0	-1.110023988488196	9.468127425685815	8.358103437197618	500.65435536555714	135.23627582028817	-3.0381679389312977	6.259541984732824	0.9465648854961831	-0.04047976011994003	0.41379310344827586	0.08845577211394302	
1.70894865350044E12	2.293478260869565	-6.391304347826087	3.6739130434782608	3950.18315018315	128.0	128.0	-1.017924668541511	9.55525035324697	8.53732568470546	500.6536341492694	135.04457653100212	-2.9770992366412212	6.580152671755725	0.7786259541984732	-0.038980509745127435	0.42278860569715143	0.08695652173913043	
1.7089486535199717E12	2.25	-6.391304347826087	3.6739130434782608	3951.6483516483513	128.0	128.0	-0.8134598509621443	9.891120778455829	9.077660927493683	500.6506050408608	135.18737735597819	-3.236641221374046	7.022900763358779	0.8396946564885496	-0.038980509745127435	0.42278860569715143	0.0944527736131934	
1.7089486535395032E12	2.3152173913043477	-6.304347826086956	3.3152173913043477	3951.6483516483513	128.0	128.0	-1.0721601333809059	9.42896538126056	8.356805247879654	500.6496674596867	135.105735672204	-3.0229007633587783	3.618320610687023	0.6564885496183206	-0.046476761619190406	0.4482758620689655	0.08695652173913043	
1.708948653559035E12	2.043478260869565	-6.380434782608695	4.076086956521739	3951.6483516483513	128.0	128.0	-1.0766316743650048	9.503827631929832	8.427195957564827	500.6503165543457	135.250483781157	-5.145038167938931	5.511450381679389	0.6106870229007634	-0.029985007496251874	0.43928035982008995	0.07496251874062969	
1.7089486535785667E12	2.3043478260869565	-6.358695652173913	3.4891304347826084	3928.205128205128	128.0	128.0	-1.078290471826848	9.50815492965638	8.429864457829531	500.6420946886653	135.1143902676571	-3.2671755725190836	7.679389312977099	0.9007633587786259	-0.04947526236881559	0.41829085457271364	0.08695652173913043	
1.7089486535980984E12	2.282608695652174	-6.358695652173913	3.6304347826086953	3951.6483516483513	128.0	128.0	-1.067327984252928	9.50317853727085	8.435850553017922	500.6479365405961	135.250483781157	-2.5038167938931295	7.1603053435114505	1.297709923664122	-0.04947526236881559	0.41079460269865065	0.07646176911544228	
1.7089486536176301E12	2.2282608695652173	-6.315217391304348	3.619565217391304	3950.18315018315	128.0	128.0	-1.0806704855764493	9.524526539388484	8.443856053812034	500.64519591870265	135.1077550778097	-1.9694656488549618	8.778625954198473	1.3740458015267174	-0.04947526236881559	0.4287856071964018	0.08995502248875561	
1.7089486536371616E12	2.2282608695652173	-6.423913043478261	3.684782608695652	3950.18315018315	128.0	128.0	-1.0689867817147711	9.514717997874977	8.445731216160205	500.6507492841184	135.00894844638688	-5.740458015267175	6.580152671755725	1.5572519083969465	-0.04047976011994003	0.43178410794602695	0.06746626686656672	
1.7089486536566934E12	2.25	-6.445652173913043	3.6739130434782608	3950.18315018315	128.0	128.0	-1.0596109699739182	9.564914651502924	8.505303681529007	500.6453401619602	135.1158327002326	-5.7251908396946565	5.801526717557252	1.450381679389313	-0.046476761619190406	0.41079460269865065	0.08395802098950525	
1.708948653676225E12	2.25	-6.445652173913043	3.7065217391304346	3951.6483516483513	128.0	128.0	-1.0429508737267106	9.572631665781936	8.529680792055226	500.6384164855977	135.01680970392343	-3.6030534351145036	4.748091603053435	0.9770992366412213	-0.05397301349325337	0.43628185907046474	0.07946026986506746	
1.7089486536957568E12	2.2717391304347827	-6.4021739130434785	3.619565217391304	3950.18315018315	128.0	128.0	-1.0211701418364219	9.63148291486298	8.610312773026559	500.6387049721128	135.11532784883116	-2.763358778625954	6.183206106870228	1.0381679389312977	-0.04947526236881559	0.43628185907046474	0.07946026986506746	
1.7089486537152886E12	2.25	-6.3478260869565215	3.608695652173913	3950.18315018315	128.0	128.0	-0.9870566114254727	9.657013971449611	8.669957360024139	500.6402195263171	135.00685691915237	-2.3664122137404577	6.687022900763359	1.0076335877862594	-0.038980509745127435	0.43628185907046474	0.08995502248875561	
1.70894865373482E12	2.2065217391304346	-6.326086956521739	3.641304347826087	3926.7399267399264	128.0	128.0	-0.9515006484390078	9.70122452988917	8.749723881450162	500.6350267690452	135.10285080705296	-2.7938931297709924	7.038167938931298	1.465648854961832	-0.046476761619190406	0.4332833583208396	0.08395802098950525	
1.7089486537543518E12	2.1847826086956523	-6.3478260869565215	3.5978260869565215	3923.8095238095234	128.0	128.0	-0.9543855135900395	9.720120396628428	8.765734883038387	500.61916001071455	135.00851571661423	-3.679389312977099	6.213740458015267	1.5725190839694656	-0.04947526236881559	0.4332833583208396	0.08695652173913043	
1.7089486537738835E12	2.217391304347826	-6.369565217391304	3.641304347826087	3951.6483516483513	128.0	128.0	-0.9845323544183201	9.71939918034067	8.73486682592235	500.6257952005619	135.125352755231	-4.183206106870228	6.366412213740458	0.9770992366412213	-0.06146926536731634	0.4257871064467766	0.07346326836581708	
1.7089486537934153E12	2.217391304347826	-6.4021739130434785	3.6630434782608696	3948.7179487179483	128.0	128.0	-1.0537691180430793	9.606600952935334	8.552831834892254	500.62060244329007	135.01861274464284	-3.7862595419847325	6.6106870229007635	1.0534351145038168	-0.04947526236881559	0.4287856071964018	0.06596701649175413	
1.7089486538129468E12	2.217391304347826	-6.423913043478261	3.6630434782608696	3951.6483516483513	128.0	128.0	-1.0617024972084161	9.552221244838385	8.49051874762997	500.61634726719234	135.11309207833912	-4.076335877862595	6.625954198473282	0.8702290076335878	-0.046476761619190406	0.43628185907046474	0.08695652173913043	
1.7089486538324785E12	2.2282608695652173	-6.423913043478261	3.6739130434782608	3923.8095238095234	128.0	128.0	-1.0994942306869306	9.526762309880533	8.427268079193603	500.62896855222806	135.02056002861977	-3.4198473282442747	6.625954198473282	1.099236641221374	-0.046476761619190406	0.4407796101949025	0.0944527736131934	
1.7089486538520103E12	2.217391304347826	-6.423913043478261	3.5869565217391304	3951.6483516483513	128.0	128.0	-1.0947342031877283	9.52560836382012	8.430874160632392	500.6375510260524	135.0976580497811	-3.3893129770992365	6.442748091603053	1.2213740458015268	-0.041979010494752625	0.4257871064467766	0.08995502248875561	
1.708948653871542E12	2.2065217391304346	-6.380434782608695	3.641304347826087	3950.18315018315	128.0	128.0	-1.0950226897028315	9.51551133579151	8.420488646088678	500.64360924286956	135.0175309202112	-2.4427480916030535	7.740458015267175	0.916030534351145	-0.03298350824587706	0.42728635682158916	0.08845577211394302	
1.7089486538910737E12	2.1956521739130435	-6.369565217391304	3.641304347826087	3926.7399267399264	128.0	128.0	-1.0860796077346335	9.520776214692143	8.434696606957509	500.6423110535516	135.08409918357125	-1.6030534351145038	5.206106870229007	1.0381679389312977	-0.037481259370314844	0.424287856071964	0.07796101949025487	
1.7089486539106052E12	2.2065217391304346	-6.4021739130434785	3.7282608695652173	3951.6483516483513	128.0	128.0	-1.0826177695533956	9.519189538859075	8.43657176930568	500.62644429522095	134.99171137710945	-2.763358778625954	8.244274809160306	1.099236641221374	-0.041979010494752625	0.43628185907046474	0.08995502248875561	
1.708948653930137E12	2.217391304347826	-6.391304347826087	3.641304347826087	3950.18315018315	128.0	128.0	-1.0798050260311396	9.527988377569722	8.448183351538582	500.62456913287275	135.07126153364916	-3.0534351145038165	6.061068702290076	1.4351145038167938	-0.05697151424287856	0.4257871064467766	0.08395802098950525	
1.7089486539496687E12	2.2282608695652173	-6.3478260869565215	3.6630434782608696	3950.18315018315	128.0	128.0	-1.07619894459235	9.527988377569722	8.451789432977371	500.62968976851585	135.21802904820788	-2.519083969465649	6.99236641221374	0.6870229007633587	-0.03298350824587706	0.42728635682158916	0.06746626686656672	
1.7089486539692004E12	2.1956521739130435	-6.380434782608695	3.6304347826086953	3950.18315018315	128.0	128.0	-1.0866565807648398	9.540753905863037	8.454097325098196	500.6216842677217	135.07717550720878	-3.1755725190839694	7.419847328244274	0.42748091603053434	-0.037481259370314844	0.4452773613193403	0.08095952023988005	
1.7089486539887322E12	2.1956521739130435	-6.4021739130434785	3.6630434782608696	3951.6483516483513	128.0	128.0	-1.0965372439071233	9.546884244308979	8.450347000401855	500.62456913287275	135.25012317301312	-3.541984732824427	7.541984732824427	0.5190839694656488	-0.05697151424287856	0.42278860569715143	0.10194902548725637	
1.7089486540082637E12	2.2065217391304346	-6.380434782608695	3.641304347826087	3950.18315018315	128.0	128.0	-1.0940129868999704	9.52272349866909	8.428710511769118	500.62557883567564	135.09361923856966	-2.8854961832061066	7.312977099236641	0.6564885496183206	-0.047976011994003	0.43478260869565216	0.095952023988006	
1.7089486540277954E12	2.217391304347826	-6.369565217391304	3.6630434782608696	3950.18315018315	128.0	128.0	-1.090695391976284	9.518901052343972	8.428205660367688	500.6270933898799	135.24731042949085	-3.0839694656488548	6.977099236641221	0.7022900763358778	-0.046476761619190406	0.4287856071964018	0.06896551724137931	
1.7089486540473271E12	2.1956521739130435	-6.380434782608695	3.641304347826087	3925.274725274725	128.0	128.0	-1.09624875739202	9.52510351241869	8.42885475502667	500.6203860784038	135.06801606035424	-3.282442748091603	7.0534351145038165	0.6259541984732824	-0.05397301349325337	0.41079460269865065	0.07946026986506746	
1.708948654066859E12	2.2065217391304346	-6.391304347826087	3.652173913043478	3951.6483516483513	128.0	128.0	-1.1021627309516349	9.530873242720753	8.428710511769118	500.6187994025707	135.24377646968085	-3.709923664122137	6.99236641221374	0.549618320610687	-0.05247376311844078	0.42728635682158916	0.08545727136431784	
1.7089486540863904E12	2.217391304347826	-6.380434782608695	3.641304347826087	3950.18315018315	128.0	128.0	-1.0909838784913872	9.509597362231895	8.418613483740508	500.61944849722966	135.25567653842884	-2.8091603053435112	7.129770992366412	0.5343511450381679	-0.041979010494752625	0.43628185907046474	0.0944527736131934	
1.708948654105922E12	2.217391304347826	-6.413043478260869	3.608695652173913	3948.7179487179483	128.0	128.0	-1.1016578795502043	9.542845433097535	8.44118755354733	500.60906298268594	135.24031463149961	-3.1755725190839694	6.641221374045801	0.7786259541984732	-0.046476761619190406	0.41529235382308843	0.08695652173913043	
1.7089486541254539E12	2.2391304347826084	-6.4021739130434785	3.652173913043478	3950.18315018315	128.0	128.0	-1.0938687436424188	9.523516836585623	8.429648092943204	500.61533756438945	135.27745727031913	-3.1755725190839694	6.3969465648854955	0.5190839694656488	-0.041979010494752625	0.4332833583208396	0.07946026986506746	
1.7089486541449856E12	2.25	-6.3478260869565215	3.6304347826086953	3939.9267399267396	128.0	128.0	-1.098340284626518	9.518324079313766	8.419983794687248	500.62586732219074	135.23807886100755	-2.8091603053435112	6.259541984732824	0.41221374045801523	-0.03298350824587706	0.42728635682158916	0.095952023988006	
