"sep=	"
Shimmer_6D72_TimestampSync_Unix_CAL	Shimmer_6D72_Accel_LN_X_CAL	Shimmer_6D72_Accel_LN_Y_CAL	Shimmer_6D72_Accel_LN_Z_CAL	Shimmer_6D72_Battery_CAL	Shimmer_6D72_ECG_EMG_Status1_CAL	Shimmer_6D72_ECG_EMG_Status2_CAL	Shimmer_6D72_ECG_LA-RA_24BIT_CAL	Shimmer_6D72_ECG_LL-LA_24BIT_CAL	Shimmer_6D72_ECG_LL-RA_24BIT_CAL	Shimmer_6D72_ECG_RESP_24BIT_CAL	Shimmer_6D72_ECG_Vx-RL_24BIT_CAL	Shimmer_6D72_Gyro_X_CAL	Shimmer_6D72_Gyro_Y_CAL	Shimmer_6D72_Gyro_Z_CAL	Shimmer_6D72_Mag_X_CAL	Shimmer_6D72_Mag_Y_CAL	Shimmer_6D72_Mag_Z_CAL	
ms	m/(s^2)	m/(s^2)	m/(s^2)	mV	no_units	no_units	mV	mV	mV	mV	mV	deg/s	deg/s	deg/s	local_flux	local_flux	local_flux	
1.7089488118847793E12	2.0978260869565215	-6.434782608695652	3.293478260869565	3923.8095238095234	128.0	128.0	-1.1069948800796128	13.551509803713538	12.444514923633925	499.224904683221	187.39716200794723	-0.3053435114503817	7.32824427480916	1.1603053435114503	-0.04047976011994003	0.416791604197901	0.08545727136431784	
1.7089488119043113E12	2.119565217391304	-6.434782608695652	3.3152173913043477	3950.18315018315	128.0	128.0	-1.0927147975820062	13.552014655114968	12.459299857532962	499.22685196719794	187.41872637495118	-0.8549618320610687	7.083969465648854	0.8549618320610687	-0.041979010494752625	0.41829085457271364	0.08995502248875561	
1.708948811923843E12	2.141304347826087	-6.4021739130434785	3.282608695652174	3948.7179487179483	128.0	128.0	-1.0930754057258851	13.569395967649934	12.476320561924048	499.226491359054	187.37314550556488	-0.732824427480916	6.351145038167939	0.8396946564885496	-0.04047976011994003	0.42728635682158916	0.09295352323838081	
1.708948811943375E12	2.1739130434782608	-6.413043478260869	3.293478260869565	3944.322344322344	128.0	128.0	-1.1227173951527352	13.526411476899563	12.403694081746828	499.2153846282226	187.44093983661412	-1.2519083969465647	7.175572519083969	0.7938931297709924	-0.046476761619190406	0.4287856071964018	0.10194902548725637	
1.7089488119629067E12	2.1847826086956523	-6.445652173913043	3.282608695652174	3948.7179487179483	128.0	128.0	-1.1318768420072607	13.49713009561659	12.36525325360933	499.22000041246423	187.39290683184944	-1.6946564885496183	6.8396946564885495	0.8091603053435115	-0.046476761619190406	0.41079460269865065	0.0944527736131934	
1.7089488119824387E12	2.1956521739130435	-6.423913043478261	3.282608695652174	3948.7179487179483	128.0	128.0	-1.1543066685565315	13.510184110425008	12.355877441868477	499.219423439434	187.49560803122617	-1.6793893129770991	7.343511450381679	0.9465648854961831	-0.04047976011994003	0.416791604197901	0.09295352323838081	
1.7089488120019705E12	2.1630434782608696	-6.456521739130435	3.369565217391304	3948.7179487179483	128.0	128.0	-1.1567588039349084	13.518982949135655	12.362224145200747	499.2093985330342	187.44411318828026	-1.083969465648855	7.038167938931298	1.099236641221374	-0.025487256371814093	0.416791604197901	0.10344827586206896	
1.7089488120215024E12	2.0869565217391304	-6.521739130434782	3.3152173913043477	3950.18315018315	128.0	128.0	-1.1413247753768891	13.482489404975105	12.341164629598216	499.2050712353076	187.71283837709885	-1.7557251908396947	6.290076335877862	0.9007633587786259	-0.029985007496251874	0.42728635682158916	0.08845577211394302	
1.7089488120410342E12	2.119565217391304	-6.478260869565217	3.4130434782608696	3923.8095238095234	128.0	128.0	-1.1125482454953488	13.520425381711172	12.407877136215824	499.2233180073879	187.4865928276292	-0.9923664122137404	6.183206106870228	0.8549618320610687	-0.031484257871064465	0.4287856071964018	0.07946026986506746	
1.7089488120605662E12	2.1630434782608696	-6.467391304347826	3.4239130434782608	3950.18315018315	128.0	128.0	-0.7195574902960648	14.109947575324487	13.390390085028422	499.204638505535	187.51832634429056	-0.9923664122137404	5.679389312977099	0.6106870229007634	-0.047976011994003	0.40929535232383807	0.08545727136431784	
1.708948812080098E12	2.1847826086956523	-6.413043478260869	3.3043478260869565	3948.7179487179483	128.0	128.0	-1.1162985701916899	13.515737475840746	12.399438905649056	499.21963980432037	187.4171396991181	-0.33587786259541985	4.885496183206107	0.9770992366412213	-0.038980509745127435	0.4257871064467766	0.08695652173913043	
1.70894881209963E12	2.0978260869565215	-6.358695652173913	3.282608695652174	3944.322344322344	128.0	128.0	-1.0932196489834367	13.526483598528339	12.433263949544902	499.22057738549444	187.68824490168632	-1.5419847328244274	3.312977099236641	0.5038167938931297	-0.05247376311844078	0.416791604197901	0.09895052473763118	
1.7089488121191616E12	2.043478260869565	-6.3478260869565215	3.4782608695652173	3934.065934065934	128.0	128.0	-1.0891087161432167	13.511626543000526	12.422517826857309	499.2148076551924	187.4380549714631	0.366412213740458	9.81679389312977	0.16793893129770993	-0.041979010494752625	0.41529235382308843	0.07946026986506746	
1.7089488121386936E12	2.2391304347826084	-6.4021739130434785	3.141304347826087	3950.18315018315	128.0	128.0	-1.064154632586793	13.513357462091143	12.449202829504351	499.22201981806995	187.663579304645	-2.5801526717557253	4.809160305343512	0.48854961832061067	-0.04947526236881559	0.4287856071964018	0.08995502248875561	
1.7089488121582253E12	2.0652173913043477	-6.4021739130434785	3.5652173913043477	3948.7179487179483	128.0	128.0	-1.0717274036082511	13.504630745009274	12.432903341401023	499.2311792649245	187.9051867610439	-1.129770992366412	9.053435114503817	0.8854961832061068	-0.041979010494752625	0.4332833583208396	0.08395802098950525	
1.7089488121777573E12	2.1956521739130435	-6.423913043478261	3.3260869565217392	3948.7179487179483	128.0	128.0	-1.056942469709214	13.541773383828804	12.484830914119591	499.22937622420505	187.736277906451	-2.0	4.259541984732825	0.9618320610687022	-0.038980509745127435	0.41829085457271364	0.09745127436281859	
1.708948812197289E12	2.0652173913043477	-6.510869565217391	3.510869565217391	3923.8095238095234	128.0	128.0	-1.027661088426243	13.497562825389245	12.469901736963003	499.2162500877679	188.08628417089992	-4.061068702290076	6.152671755725191	0.7938931297709924	-0.05547226386806597	0.4197901049475262	0.09295352323838081	
1.708948812216821E12	2.152173913043478	-6.489130434782608	3.25	3950.18315018315	128.0	128.0	-1.0072506674826942	13.549634641365367	12.542383973882673	499.20283546481556	187.9221353438062	-1.7862595419847327	2.259541984732824	0.12213740458015267	-0.04047976011994003	0.4197901049475262	0.08845577211394302	
1.7089488122363528E12	2.0869565217391304	-6.369565217391304	3.467391304347826	3950.18315018315	128.0	128.0	-0.9686655960876461	13.560813493825615	12.592147897737968	499.1956954235668	188.220718886938	1.83206106870229	5.419847328244274	0.22900763358778625	-0.038980509745127435	0.42278860569715143	0.08695652173913043	
1.7089488122558848E12	2.119565217391304	-6.304347826086956	3.3804347826086953	3942.8571428571427	128.0	128.0	-0.9279168758293243	13.590166996737361	12.662250120908038	499.2144470470485	188.05830097893488	-0.3511450381679389	5.297709923664122	0.41221374045801523	-0.037481259370314844	0.43478260869565216	0.09295352323838081	
1.7089488122754165E12	2.130434782608696	-6.369565217391304	3.391304347826087	3950.18315018315	128.0	128.0	-0.89286576424429	13.645989137409824	12.753123373165534	499.2063694246256	188.31346730154365	-2.2748091603053435	6.305343511450381	0.4580152671755725	-0.031484257871064465	0.43628185907046474	0.08395802098950525	
1.7089488122949485E12	2.1739130434782608	-6.391304347826087	3.391304347826087	3948.7179487179483	128.0	128.0	-0.8827687362156793	13.673034748200745	12.790266011985066	499.1876178011439	188.0964533205573	-3.3893129770992365	5.862595419847328	0.5343511450381679	-0.047976011994003	0.42728635682158916	0.08095952023988005	
1.7089488123144802E12	2.1630434782608696	-6.413043478260869	3.4130434782608696	3947.252747252747	128.0	128.0	-0.9207047129517452	13.657528598013949	12.736823885062204	499.1882668958029	188.38191072725186	-3.0534351145038165	5.9541984732824424	0.2900763358778626	-0.04497751124437781	0.41379310344827586	0.08845577211394302	
1.7089488123340122E12	2.152173913043478	-6.423913043478261	3.467391304347826	3948.7179487179483	128.0	128.0	-0.9797002052903421	13.599182200334335	12.619481995043992	499.2037009243609	188.34772507521214	-2.229007633587786	6.824427480916031	0.24427480916030533	-0.04947526236881559	0.4332833583208396	0.08995502248875561	
1.708948812353544E12	2.1847826086956523	-6.4021739130434785	3.4565217391304346	3925.274725274725	128.0	128.0	-1.0394169139166969	13.518333854476673	12.478916940559976	499.21098520886727	188.52348548453875	-2.0763358778625953	6.137404580152672	0.12213740458015267	-0.047976011994003	0.43478260869565216	0.08845577211394302	
1.708948812373076E12	2.141304347826087	-6.358695652173913	3.510869565217391	3950.18315018315	128.0	128.0	-1.0346568864174948	13.458977753994198	12.424320867576704	499.2141585605334	188.53415948559757	-1.6946564885496183	6.427480916030534	-0.15267175572519084	-0.04047976011994003	0.42728635682158916	0.10344827586206896	
1.7089488123926077E12	2.2065217391304346	-6.4021739130434785	3.4239130434782608	3948.7179487179483	128.0	128.0	-1.0385514543713874	13.477296647703248	12.438745193331862	499.19374813958984	188.64890499697984	-2.732824427480916	4.67175572519084	-0.5190839694656488	-0.038980509745127435	0.4407796101949025	0.08695652173913043	
1.7089488124121396E12	2.1739130434782608	-6.293478260869565	3.4565217391304346	3942.8571428571427	128.0	128.0	-1.0467733200518274	13.456958348388476	12.410185028336649	499.21423068216217	188.72982546446627	-0.030534351145038167	7.435114503816793	-0.12213740458015267	-0.04947526236881559	0.4047976011994003	0.07946026986506746	
1.7089488124316714E12	2.152173913043478	-6.326086956521739	3.4891304347826084	3950.18315018315	128.0	128.0	-1.0388399408864906	13.472969349976701	12.434129409090211	499.20471062716376	188.8015143634694	-0.5343511450381679	6.091603053435114	-0.10687022900763359	-0.04497751124437781	0.416791604197901	0.09895052473763118	
1.7089488124512034E12	2.1956521739130435	-6.358695652173913	3.532608695652174	3948.7179487179483	128.0	128.0	-1.044176941415899	13.483571229406742	12.439394287990844	499.22014465572175	188.8561104364527	-2.916030534351145	7.0534351145038165	0.0	-0.029985007496251874	0.4197901049475262	0.08095952023988005	
1.708948812470735E12	2.1847826086956523	-6.358695652173913	3.5217391304347827	3948.7179487179483	128.0	128.0	-1.0397775220605758	13.497057973987815	12.45728045192724	499.2221640613275	188.70321258344802	-3.3435114503816794	7.98473282442748	0.22900763358778625	-0.04047976011994003	0.424287856071964	0.08545727136431784	
1.708948812490267E12	2.1630434782608696	-6.4021739130434785	3.510869565217391	3948.7179487179483	128.0	128.0	-1.0402823734620064	13.531532112542642	12.491249739080637	499.20737912742845	189.05898857819898	-2.549618320610687	8.076335877862595	0.0	-0.03298350824587706	0.42728635682158916	0.08545727136431784	
1.7089488125097988E12	2.1630434782608696	-6.423913043478261	3.510869565217391	3925.274725274725	128.0	128.0	-1.0217471148666282	13.509607137394802	12.487860022528174	499.1980754373164	188.80439922862044	-2.900763358778626	8.564885496183205	-0.015267175572519083	-0.05547226386806597	0.43178410794602695	0.08095952023988005	
1.7089488125293308E12	2.1847826086956523	-6.3478260869565215	3.4782608695652173	3950.18315018315	128.0	128.0	-1.0060967214222816	13.494173108836783	12.488076387414502	499.20925428977665	189.167387386249	-3.49618320610687	7.786259541984733	0.38167938931297707	-0.05547226386806597	0.42728635682158916	0.08845577211394302	
1.7089488125488625E12	2.1739130434782608	-6.315217391304348	3.4130434782608696	3948.7179487179483	128.0	128.0	-1.0241271286162292	13.50758773178908	12.483460603172851	499.20110454572495	189.02343261521253	-2.687022900763359	6.763358778625954	0.6717557251908397	-0.019490254872563718	0.42278860569715143	0.08695652173913043	
1.7089488125683945E12	2.2065217391304346	-6.304347826086956	3.4565217391304346	3944.322344322344	128.0	128.0	-1.01828527668539	13.49027854088289	12.4719932641975	499.20975914117804	189.37365524454776	-4.076335877862595	7.206106870229007	0.8244274809160305	-0.04047976011994003	0.42728635682158916	0.09295352323838081	
1.7089488125879263E12	2.1956521739130435	-6.326086956521739	3.434782608695652	3948.7179487179483	128.0	128.0	-1.014895560132928	13.51927143565076	12.504375875517832	499.20889368163273	189.12014771940088	-4.061068702290076	7.893129770992366	0.7786259541984732	-0.05397301349325337	0.4287856071964018	0.08395802098950525	
1.7089488126074583E12	2.217391304347826	-6.33695652173913	3.369565217391304	3948.7179487179483	128.0	128.0	-1.030041102175844	13.509102285993372	12.479061183817528	499.2108409656097	188.993357896013	-4.2748091603053435	7.557251908396946	0.9618320610687022	-0.025487256371814093	0.42728635682158916	0.08545727136431784	
1.70894881262699E12	2.2065217391304346	-6.413043478260869	3.434782608695652	3948.7179487179483	128.0	128.0	-1.0054476267632995	13.53160423417142	12.52615660740812	499.22230830458506	189.23323443332131	-4.793893129770992	8.625954198473282	0.8854961832061068	-0.04047976011994003	0.416791604197901	0.10344827586206896	
1.708948812646522E12	2.1956521739130435	-6.423913043478261	3.4130434782608696	3950.18315018315	128.0	128.0	-0.9903742063491591	13.545523708525147	12.555149502175988	499.23658838708263	189.0481703338826	-4.977099236641221	8.091603053435113	0.9770992366412213	-0.047976011994003	0.424287856071964	0.08845577211394302	
1.7089488126660537E12	2.2282608695652173	-6.413043478260869	3.369565217391304	3922.344322344322	128.0	128.0	-0.964194055103547	13.555981344697637	12.59178728959409	499.23889627920346	189.46957701081956	-4.442748091603053	7.66412213740458	0.916030534351145	-0.038980509745127435	0.4287856071964018	0.07946026986506746	
1.7089488126855857E12	2.2282608695652173	-6.4021739130434785	3.3804347826086953	3948.7179487179483	128.0	128.0	-0.97631048873788	13.553168601175381	12.5768581124375	499.22043314223686	189.4691442810469	-4.351145038167939	7.587786259541985	0.7175572519083969	-0.037481259370314844	0.43928035982008995	0.08845577211394302	
1.7089488127051174E12	2.1956521739130435	-6.391304347826087	3.4239130434782608	3948.7179487179483	128.0	128.0	-1.0119385733531205	13.51083320508399	12.49889463173087	499.23125138655325	189.6988516686978	-5.221374045801526	8.030534351145038	0.8244274809160305	-0.046476761619190406	0.4332833583208396	0.08995502248875561	
1.7089488127246494E12	2.1956521739130435	-6.4021739130434785	3.402173913043478	3941.391941391941	128.0	128.0	-1.0120828166106721	13.493091284405146	12.481008467794474	499.22714045371305	189.48544376915024	-5.587786259541985	8.259541984732824	0.8396946564885496	-0.034482758620689655	0.4287856071964018	0.0944527736131934	
1.7089488127441812E12	2.1739130434782608	-6.380434782608695	3.369565217391304	3948.7179487179483	128.0	128.0	-1.021458628351525	13.504558623380497	12.483099995028972	499.2171155473132	190.0241923361054	-5.267175572519084	7.908396946564885	0.8549618320610687	-0.05247376311844078	0.4197901049475262	0.08545727136431784	
1.7089488127637131E12	2.1630434782608696	-6.380434782608695	3.4239130434782608	3950.18315018315	128.0	128.0	-1.0282380614564492	13.49575978466985	12.467521723213402	499.2080282220874	189.98387634561973	-5.114503816793893	8.717557251908397	1.114503816793893	-0.046476761619190406	0.43628185907046474	0.08395802098950525	
1.7089488127832449E12	2.1739130434782608	-6.423913043478261	3.3478260869565215	3948.7179487179483	128.0	128.0	-1.030690196834826	13.501818001487017	12.471127804652191	499.2194955610628	190.24156692523565	-5.068702290076335	8.229007633587786	1.2213740458015268	-0.04047976011994003	0.4197901049475262	0.10344827586206896	
1.7089488128027769E12	2.1847826086956523	-6.413043478260869	3.358695652173913	3948.7179487179483	128.0	128.0	-0.9735698668443998	13.527276936444872	12.553707069600472	499.2162500877679	190.2267819913366	-4.458015267175572	9.114503816793892	1.2061068702290076	-0.05547226386806597	0.416791604197901	0.09295352323838081	
1.7089488128223086E12	2.152173913043478	-6.423913043478261	3.434782608695652	3923.8095238095234	128.0	128.0	-0.628467873152241	14.168726702776755	13.540258829624515	499.20853307348887	190.1541555111594	-3.6946564885496183	8.229007633587786	1.3282442748091603	-0.037481259370314844	0.43178410794602695	0.10644677661169415	
1.7089488128418406E12	2.1630434782608696	-6.4021739130434785	3.3369565217391304	3948.7179487179483	128.0	128.0	-1.030401710319723	13.555043763523551	12.524642053203829	499.22540953462243	190.2154588956188	-3.6488549618320607	6.458015267175572	0.9312977099236641	-0.04497751124437781	0.4197901049475262	0.10344827586206896	
1.7089488128613723E12	2.108695652173913	-6.391304347826087	3.260869565217391	3948.7179487179483	128.0	128.0	-1.0020579102108371	13.549201911592712	12.547144001381875	499.22923198094753	190.36907796491124	-5.190839694656488	4.122137404580153	0.47328244274809156	-0.04047976011994003	0.43178410794602695	0.08845577211394302	
1.7089488128809043E12	2.0760869565217392	-6.423913043478261	3.543478260869565	3942.8571428571427	128.0	128.0	-1.001048207407976	13.545667951782699	12.544619744374723	499.2224525478426	190.2952975386736	-4.183206106870228	10.50381679389313	0.7022900763358778	-0.041979010494752625	0.4287856071964018	0.08395802098950525	
1.708948812900436E12	2.260869565217391	-6.413043478260869	3.0543478260869565	3950.18315018315	128.0	128.0	-1.0102797758912774	13.551365560455986	12.541085784564709	499.21011974932196	190.66506512940708	-3.3587786259541983	5.0534351145038165	1.0229007633587786	-0.037481259370314844	0.42728635682158916	0.09295352323838081	
1.708948812919968E12	2.130434782608696	-6.4021739130434785	3.5543478260869565	3950.18315018315	128.0	128.0	-0.9982354638857203	13.559587426136426	12.561351962250706	499.2021863701566	191.04586732934325	-2.030534351145038	10.48854961832061	1.0381679389312977	-0.038980509745127435	0.4332833583208396	0.08995502248875561	
1.7089488129394998E12	2.2065217391304346	-6.434782608695652	3.3478260869565215	3948.7179487179483	128.0	128.0	-0.9905184496067106	13.586993645071226	12.596475195464516	499.20709064091335	190.8470279988084	-1.4961832061068703	6.687022900763359	1.297709923664122	-0.037481259370314844	0.42728635682158916	0.08845577211394302	
1.7089488129590317E12	2.1630434782608696	-6.5	3.4891304347826084	3947.252747252747	128.0	128.0	-0.9740747182458304	13.582666347344679	12.608591629098848	499.22000041246423	191.23778298351564	-4.122137404580153	7.251908396946565	0.8854961832061068	-0.029985007496251874	0.4197901049475262	0.095952023988006	
1.7089488129785635E12	2.141304347826087	-6.532608695652174	3.402173913043478	3925.274725274725	128.0	128.0	-0.9529430810145237	13.607981039044983	12.655037958030459	499.21459129030603	191.09765065880427	-3.3893129770992365	5.816793893129771	0.6870229007633587	-0.04047976011994003	0.424287856071964	0.08845577211394302	
1.7089488129980955E12	2.141304347826087	-6.445652173913043	3.3804347826086953	3950.18315018315	128.0	128.0	-0.9235895781027769	13.630194500707924	12.706604922605148	499.19915726174804	191.4017875673518	-0.7480916030534351	5.770992366412213	0.2748091603053435	-0.04047976011994003	0.43478260869565216	0.10644677661169415	
1.7089488130176272E12	2.119565217391304	-6.358695652173913	3.4456521739130435	3950.18315018315	128.0	128.0	-0.873176559588499	13.686233006266715	12.813056446678216	499.1861032469396	191.1220277693305	0.24427480916030533	6.458015267175572	0.5038167938931297	-0.047976011994003	0.416791604197901	0.095952023988006	
1.7089488130371592E12	2.141304347826087	-6.369565217391304	3.369565217391304	3942.8571428571427	128.0	128.0	-0.8527661386449503	13.71955319876113	12.86678706011618	499.195623301938	191.36882798300124	-1.8778625954198473	5.908396946564885	1.0687022900763359	-0.041979010494752625	0.4287856071964018	0.10194902548725637	
1.708948813056691E12	2.1739130434782608	-6.380434782608695	3.402173913043478	3948.7179487179483	128.0	128.0	-0.8590407203484441	13.75280126962677	12.893760549278326	499.19966211314943	191.4440508418144	-2.6564885496183206	6.824427480916031	1.099236641221374	-0.041979010494752625	0.4287856071964018	0.07946026986506746	
1.708948813076223E12	2.141304347826087	-6.4021739130434785	3.4130434782608696	3948.7179487179483	128.0	128.0	-0.9020252110988154	13.728424159100552	12.826398948001737	499.19872453197536	191.22400775241945	-2.9770992366412212	6.244274809160305	0.9465648854961831	-0.046476761619190406	0.4257871064467766	0.0944527736131934	
1.7089488130957546E12	2.1630434782608696	-6.413043478260869	3.4456521739130435	3948.7179487179483	128.0	128.0	-0.9711898530947988	13.684862695319975	12.713672842225176	499.1959117884531	191.31516949119205	-3.3893129770992365	6.671755725190839	1.3282442748091603	-0.04497751124437781	0.43178410794602695	0.08545727136431784	
1.7089488131152866E12	2.1847826086956523	-6.456521739130435	3.434782608695652	3948.7179487179483	128.0	128.0	-1.011073113807811	13.588580320904294	12.577507207096483	499.20918216814783	191.29786030028586	-2.916030534351145	7.1603053435114505	1.099236641221374	-0.031484257871064465	0.4257871064467766	0.10194902548725637	
1.7089488131348184E12	2.217391304347826	-6.434782608695652	3.402173913043478	3922.344322344322	128.0	128.0	-1.0202325606623366	13.553240722804157	12.53300816214182	499.2087494383752	191.38729111996784	-2.778625954198473	7.32824427480916	1.0076335877862594	-0.031484257871064465	0.41829085457271364	0.08995502248875561	
1.7089488131543503E12	2.1847826086956523	-6.478260869565217	3.3369565217391304	3950.18315018315	128.0	128.0	-1.026579263994606	13.546966141100663	12.520386877106057	499.2093264114054	191.1880911812891	-3.618320610687023	6.045801526717557	0.8396946564885496	-0.041979010494752625	0.42278860569715143	0.07946026986506746	
1.708948813173882E12	2.1739130434782608	-6.413043478260869	3.391304347826087	3948.7179487179483	128.0	128.0	-1.0480715093697917	13.556702560985395	12.508631051615604	499.2066579111407	191.26273706707207	-1.8931297709923662	8.183206106870228	0.8549618320610687	-0.05697151424287856	0.4287856071964018	0.08395802098950525	
1.708948813193414E12	2.119565217391304	-6.413043478260869	3.369565217391304	3939.9267399267396	128.0	128.0	-1.0494418203165317	13.570694156967898	12.521252336651367	499.1902863014086	191.03778970692036	-1.8625954198473282	6.549618320610687	1.099236641221374	-0.04047976011994003	0.424287856071964	0.08845577211394302	
1.7089488132129458E12	2.1739130434782608	-6.423913043478261	3.434782608695652	3950.18315018315	128.0	128.0	-1.0635776595565867	13.57718510355772	12.513607444001133	499.20225849178536	191.09750641554672	-1.9236641221374045	7.83206106870229	1.099236641221374	-0.04947526236881559	0.4257871064467766	0.07346326836581708	
1.7089488132324778E12	2.2282608695652173	-6.391304347826087	3.4239130434782608	3948.7179487179483	128.0	128.0	-1.035233859447701	13.568242021589521	12.53300816214182	499.20593669485294	190.8311612404777	-2.015267175572519	7.480916030534351	0.9618320610687022	-0.046476761619190406	0.43628185907046474	0.10494752623688156	
1.7089488132520095E12	2.1847826086956523	-6.423913043478261	3.402173913043478	3948.7179487179483	128.0	128.0	-1.0502351582330656	13.582449982458353	12.532214824225287	499.1977148291725	191.08005298138298	-2.946564885496183	6.549618320610687	0.8396946564885496	-0.05997001499250375	0.424287856071964	0.09295352323838081	
1.7089488132715415E12	2.141304347826087	-6.456521739130435	3.4565217391304346	3944.322344322344	128.0	128.0	-1.0512448610359266	13.587859104616538	12.53661424358061	499.18992569326474	190.79300889885533	-2.5801526717557253	7.404580152671755	0.564885496183206	-0.046476761619190406	0.4257871064467766	0.06146926536731634	
1.7089488132910732E12	2.119565217391304	-6.456521739130435	3.4782608695652173	3923.8095238095234	128.0	128.0	-1.0645873623594477	13.590311239994914	12.525723877635466	499.19858028871784	190.7883209929849	-2.8854961832061066	7.450381679389313	0.8549618320610687	-0.0239880059970015	0.4287856071964018	0.08995502248875561	
1.7089488133106052E12	2.141304347826087	-6.434782608695652	3.4239130434782608	3950.18315018315	128.0	128.0	-1.0667510112227216	13.57343477886138	12.506683767638657	499.20168151875515	190.48620349004312	-2.2442748091603053	7.480916030534351	0.5190839694656488	-0.022488755622188904	0.41379310344827586	0.095952023988006	
1.708948813330137E12	2.152173913043478	-6.391304347826087	3.4565217391304346	3948.7179487179483	128.0	128.0	-1.0671116193666006	13.590527604881242	12.52341598551464	499.1971378561423	190.34376327321093	-2.6259541984732824	6.015267175572519	0.5343511450381679	-0.037481259370314844	0.42728635682158916	0.095952023988006	
1.708948813349669E12	2.1739130434782608	-6.391304347826087	3.467391304347826	3941.391941391941	128.0	128.0	-1.0787232015995027	13.581945131056923	12.50322192945742	499.19158449072654	189.99209821130017	-3.450381679389313	6.305343511450381	0.366412213740458	-0.037481259370314844	0.43178410794602695	0.09295352323838081	
1.7089488133692007E12	2.152173913043478	-6.423913043478261	3.402173913043478	3950.18315018315	128.0	128.0	-1.0855026347044272	13.607331944386	12.521829309681573	499.1898535716359	189.61273844393952	-3.83206106870229	6.793893129770992	0.48854961832061067	-0.05247376311844078	0.416791604197901	0.08545727136431784	
1.7089488133887327E12	2.1630434782608696	-6.434782608695652	3.4130434782608696	3948.7179487179483	128.0	128.0	-1.0886038647417862	13.585334847609383	12.496730982867597	499.21011974932196	189.8513889135586	-3.2061068702290076	6.564885496183206	0.5190839694656488	-0.038980509745127435	0.4287856071964018	0.0944527736131934	
1.7089488134082644E12	2.152173913043478	-6.423913043478261	3.434782608695652	3950.18315018315	128.0	128.0	-1.073818930842749	13.580358455223855	12.506539524381106	499.2099033844356	189.53542405789187	-3.4198473282442747	6.671755725190839	0.6870229007633587	-0.04047976011994003	0.416791604197901	0.08545727136431784	
1.7089488134277964E12	2.1847826086956523	-6.456521739130435	3.4130434782608696	3944.322344322344	128.0	128.0	-1.0743237822441796	13.609134985105396	12.534811202861215	499.2102639925795	189.793042515879	-3.541984732824427	5.847328244274809	0.4427480916030534	-0.04047976011994003	0.43478260869565216	0.09895052473763118	
1.7089488134473281E12	2.1630434782608696	-6.413043478260869	3.4456521739130435	3925.274725274725	128.0	128.0	-1.0804541206901217	13.671087464223799	12.590633343533677	499.1935317747035	189.4882565126725	-2.8091603053435112	5.938931297709924	0.7480916030534351	-0.037481259370314844	0.43178410794602695	0.095952023988006	
1.70894881346686E12	2.2065217391304346	-6.413043478260869	3.467391304347826	3950.18315018315	128.0	128.0	-1.0726649847823364	13.663514693202341	12.590849708420004	499.203340316217	189.77566120334401	-2.732824427480916	5.709923664122138	0.5343511450381679	-0.038980509745127435	0.4287856071964018	0.07946026986506746	
1.7089488134863918E12	2.1847826086956523	-6.380434782608695	3.4782608695652173	3950.18315018315	128.0	128.0	-1.0842765670152388	13.66524561229296	12.58096904527772	499.2000948429221	189.52835613827185	-2.8396946564885495	6.152671755725191	0.5954198473282443	-0.046476761619190406	0.43628185907046474	0.09745127436281859	
1.7089488135059238E12	2.1847826086956523	-6.413043478260869	3.4239130434782608	3941.391941391941	128.0	128.0	-1.1018742444365317	13.641301231539398	12.539426987102866	499.20052757269474	189.5088111768736	-2.8091603053435112	6.381679389312977	0.4580152671755725	-0.037481259370314844	0.43478260869565216	0.08545727136431784	
1.7089488135254556E12	2.1956521739130435	-6.434782608695652	3.434782608695652	3948.7179487179483	128.0	128.0	-1.1165149350780172	13.609856201393152	12.493341266315134	499.1902863014086	189.55374295160092	-3.16030534351145	6.412213740458015	0.564885496183206	-0.05397301349325337	0.4332833583208396	0.0944527736131934	
1.7089488135449875E12	2.1630434782608696	-6.423913043478261	3.4239130434782608	3948.7179487179483	128.0	128.0	-1.1333913962115523	13.616996242641955	12.483604846430403	499.1973542210286	189.6335815946557	-3.5877862595419847	6.473282442748092	0.6106870229007634	-0.05547226386806597	0.4197901049475262	0.08545727136431784	
1.7089488135645193E12	2.1739130434782608	-6.434782608695652	3.4239130434782608	3948.7179487179483	128.0	128.0	-1.140315072574028	13.604302835977416	12.463987763403388	499.18978145000716	189.80595228742985	-3.3740458015267176	5.7251908396946565	0.8244274809160305	-0.05247376311844078	0.42728635682158916	0.07796101949025487	
1.7089488135840513E12	2.217391304347826	-6.413043478260869	3.4239130434782608	3944.322344322344	128.0	128.0	-1.1486090598832441	13.62803085184465	12.479421791961407	499.19158449072654	189.7045492773711	-3.3740458015267176	5.938931297709924	0.8091603053435115	-0.037481259370314844	0.43178410794602695	0.08095952023988005	
1.708948813603583E12	2.2065217391304346	-6.4021739130434785	3.391304347826087	3925.274725274725	128.0	128.0	-1.0192228578594755	13.754532188717388	12.735309330857913	499.19966211314943	189.64216406848004	-2.8702290076335877	6.183206106870228	0.10687022900763359	-0.047976011994003	0.4197901049475262	0.10344827586206896	
1.708948813623115E12	2.1956521739130435	-6.4021739130434785	3.4565217391304346	3948.7179487179483	128.0	128.0	-0.6450558477706728	14.243084102044595	13.598028254273922	499.19064690955247	189.22631075695884	-3.0534351145038165	6.3206106870229	0.6106870229007634	-0.04047976011994003	0.424287856071964	0.08095952023988005	
1.7089488136426467E12	2.260869565217391	-6.380434782608695	3.2717391304347827	3948.7179487179483	128.0	128.0	-1.1026675823530654	13.582666347344679	12.479998764991613	499.19136812584026	189.49554079717885	-2.7022900763358777	6.931297709923664	0.4580152671755725	-0.047976011994003	0.424287856071964	0.08845577211394302	
1.7089488136621787E12	2.130434782608696	-6.369565217391304	3.5869565217391304	3939.9267399267396	128.0	128.0	-1.127333179394386	13.708518589558434	12.581185410164048	499.2049269920501	189.42284219537285	-4.9465648854961835	0.5190839694656488	0.8244274809160305	-0.029985007496251874	0.42728635682158916	0.08545727136431784	
1.7089488136817104E12	2.108695652173913	-6.445652173913043	3.467391304347826	3948.7179487179483	128.0	128.0	-1.1312998689770544	13.679958424563221	12.548658555586167	499.20052757269474	189.6139645116287	-4.412213740458015	10.854961832061068	0.21374045801526717	-0.04947526236881559	0.42278860569715143	0.08695652173913043	
1.7089488137012424E12	2.293478260869565	-6.423913043478261	3.3043478260869565	3948.7179487179483	128.0	128.0	-1.1233664898117173	13.686233006266715	12.562866516454998	499.19930150500556	189.3151646036106	-3.801526717557252	4.076335877862595	0.564885496183206	-0.046476761619190406	0.4287856071964018	0.08995502248875561	
1.7089488137207742E12	2.152173913043478	-6.315217391304348	3.369565217391304	3948.7179487179483	128.0	128.0	-1.1183900974261878	13.684718452062423	12.566328354636235	499.1911517609539	189.4545757120342	-1.0229007633587786	8.274809160305344	1.2671755725190839	-0.04947526236881559	0.4287856071964018	0.0944527736131934	
1.7089488137403062E12	2.152173913043478	-6.413043478260869	3.434782608695652	3950.18315018315	128.0	128.0	-1.109663380344317	13.716668333610098	12.60700495326578	499.2001669645509	189.04240060358055	-4.396946564885496	6.106870229007633	1.3740458015267174	-0.029985007496251874	0.43178410794602695	0.08845577211394302	
1.708948813759838E12	2.1630434782608696	-6.456521739130435	3.5217391304347827	3925.274725274725	128.0	128.0	-1.102451217466738	13.71371134683029	12.611260129363552	499.19461359913515	189.23222473051845	-4.67175572519084	7.923664122137405	1.1908396946564885	-0.046476761619190406	0.4332833583208396	0.07346326836581708	
1.7089488137793699E12	2.1956521739130435	-6.5	3.434782608695652	3950.18315018315	128.0	128.0	-1.0788674448570543	13.766071649321516	12.68720420446446	499.1876178011439	188.99862277491366	-4.564885496183206	4.65648854961832	1.2671755725190839	-0.038980509745127435	0.4332833583208396	0.08695652173913043	
1.7089488137989016E12	2.2065217391304346	-6.456521739130435	3.4456521739130435	3950.18315018315	128.0	128.0	-1.053841239671855	13.79217967893835	12.738338439266496	499.1909353960676	189.2183052561647	-3.5114503816793894	6.106870229007633	0.549618320610687	-0.04047976011994003	0.43178410794602695	0.09895052473763118	
1.7089488138184336E12	2.1847826086956523	-6.423913043478261	3.3804347826086953	3941.391941391941	128.0	128.0	-1.0312671698650324	13.838193278097306	12.806926108232274	499.1939645044762	189.42536645238002	-2.687022900763359	6.229007633587786	0.564885496183206	-0.034482758620689655	0.4257871064467766	0.07946026986506746	
1.7089488138379653E12	2.141304347826087	-6.358695652173913	3.4239130434782608	3950.18315018315	128.0	128.0	-0.9878499493420064	13.893005715966908	12.905155766624901	499.1889881120906	189.16053583151532	-1.9083969465648853	6.916030534351145	0.7175572519083969	-0.04047976011994003	0.424287856071964	0.08545727136431784	
1.7089488138574973E12	2.141304347826087	-6.358695652173913	3.402173913043478	3950.18315018315	128.0	128.0	-0.974868056162364	13.915724029031281	12.940855972868917	499.18466081436407	189.38807957030292	-2.763358778625954	6.366412213740458	1.083969465648855	-0.037481259370314844	0.424287856071964	0.09295352323838081	
1.708948813877029E12	2.152173913043478	-6.4021739130434785	3.4456521739130435	3950.18315018315	128.0	128.0	-1.0271562370248124	13.880961403961349	12.853805166936537	499.1980754373164	189.13327385583807	-3.236641221374046	6.564885496183206	1.2213740458015268	-0.04947526236881559	0.41829085457271364	0.0944527736131934	
1.708948813896561E12	2.1847826086956523	-6.4021739130434785	3.4456521739130435	3948.7179487179483	128.0	128.0	-1.0840602021289114	13.796579098293675	12.712518896164763	499.1976427075437	189.3530284587179	-3.633587786259542	6.717557251908397	0.9770992366412213	-0.046476761619190406	0.42278860569715143	0.0944527736131934	
1.7089488139160928E12	2.1956521739130435	-6.445652173913043	3.4782608695652173	3923.8095238095234	128.0	128.0	-1.1222125437513046	13.686882100925697	12.564669557174392	499.18393959807634	189.13716842379196	-3.5572519083969465	6.8396946564885495	0.732824427480916	-0.037481259370314844	0.41379310344827586	0.08095952023988005	
1.7089488139356248E12	2.1847826086956523	-6.434782608695652	3.4891304347826084	3948.7179487179483	128.0	128.0	-1.127621665909489	13.68082388410853	12.553202218199042	499.1912238825827	189.3554084724675	-3.0534351145038165	6.854961832061068	0.5801526717557252	-0.05997001499250375	0.416791604197901	0.08845577211394302	
1.7089488139551565E12	2.130434782608696	-6.423913043478261	3.3804347826086953	3948.7179487179483	128.0	128.0	-1.1339683692417586	13.668058355815216	12.534089986573457	499.1944693558776	189.25299575960588	-2.33587786259542	7.312977099236641	0.8396946564885496	-0.04047976011994003	0.416791604197901	0.07796101949025487	
1.7089488139746885E12	2.1847826086956523	-6.4021739130434785	3.358695652173913	3939.9267399267396	128.0	128.0	-1.1374302074229965	13.657600719642726	12.52017051221973	499.1847329359929	189.15476610121326	-1.9236641221374045	6.244274809160305	0.8854961832061068	-0.05397301349325337	0.4257871064467766	0.08995502248875561	
1.7089488139942202E12	2.119565217391304	-6.3478260869565215	3.467391304347826	3948.7179487179483	128.0	128.0	-1.131732598749709	13.651398259568008	12.5196656608183	499.195623301938	189.010090113889	-1.4045801526717556	6.152671755725191	0.6564885496183206	-0.04047976011994003	0.43178410794602695	0.09895052473763118	
1.7089488140137522E12	2.1630434782608696	-6.358695652173913	3.467391304347826	3950.18315018315	128.0	128.0	-1.1275495442807133	13.640219407107761	12.512669862827048	499.2009603024674	189.05978191611553	-2.427480916030534	6.366412213740458	0.42748091603053434	-0.04947526236881559	0.4257871064467766	0.10194902548725637	
1.708948814033284E12	2.1956521739130435	-6.423913043478261	3.467391304347826	3944.322344322344	128.0	128.0	-1.1353386801884986	13.699142777817581	12.563804097629083	499.19605603171067	189.0152107495321	-3.969465648854962	6.916030534351145	0.7633587786259541	-0.038980509745127435	0.43628185907046474	0.10794602698650674	
1.708948814052816E12	2.1847826086956523	-6.445652173913043	3.4782608695652173	3948.7179487179483	128.0	128.0	-1.1382235453395302	13.672169288655436	12.533945743315906	499.1948299640215	189.03021204831745	-3.2061068702290076	6.076335877862595	0.8396946564885496	-0.034482758620689655	0.4077961019490255	0.08695652173913043	
1.7089488140723477E12	2.1956521739130435	-6.423913043478261	3.4456521739130435	3925.274725274725	128.0	128.0	-1.1369974776503418	13.684718452062423	12.547720974412082	499.19519057216536	189.00417614032938	-3.5725190839694654	6.3206106870229	0.7480916030534351	-0.05247376311844078	0.43478260869565216	0.08845577211394302	
1.7089488140918796E12	2.1739130434782608	-6.4021739130434785	3.4456521739130435	3950.18315018315	128.0	128.0	-1.1364205046201354	13.671015342595023	12.534594837974888	499.20240273504294	188.99047303086198	-2.9770992366412212	7.068702290076335	0.22900763358778625	-0.046476761619190406	0.41829085457271364	0.08695652173913043	
1.7089488141114114E12	2.1956521739130435	-6.391304347826087	3.4891304347826084	3948.7179487179483	128.0	128.0	-1.1344732206431891	13.66438015274765	12.529906932104462	499.20766761394356	188.8838051419026	-2.4732824427480917	7.32824427480916	0.549618320610687	-0.04047976011994003	0.416791604197901	0.08095952023988005	
1.7089488141309434E12	2.1739130434782608	-6.380434782608695	3.4565217391304346	3939.9267399267396	128.0	128.0	-1.1296410715152112	13.672529896799315	12.542888825284104	499.2010324240962	188.52521640362937	-3.099236641221374	6.702290076335878	0.6870229007633587	-0.025487256371814093	0.41379310344827586	0.08545727136431784	
1.708948814150475E12	2.1847826086956523	-6.380434782608695	3.434782608695652	3948.7179487179483	128.0	128.0	-1.1501957357163115	13.671087464223799	12.520891728507488	499.1953348154229	188.72181996367217	-3.7404580152671754	6.900763358778626	0.5801526717557252	-0.04497751124437781	0.424287856071964	0.09295352323838081	
1.708948814170007E12	2.1847826086956523	-6.391304347826087	3.4456521739130435	3948.7179487179483	128.0	128.0	-1.147959965224262	13.675126275435243	12.527166310210982	499.187906287659	188.39258472831068	-3.9541984732824424	6.931297709923664	0.8244274809160305	-0.031484257871064465	0.4257871064467766	0.08395802098950525	
1.7089488141895388E12	2.1739130434782608	-6.423913043478261	3.434782608695652	3948.7179487179483	128.0	128.0	-1.1358435315899291	13.663154085058462	12.527310553468533	499.17788138125917	188.66671903928747	-3.6030534351145036	7.129770992366412	0.8244274809160305	-0.026986506746626684	0.4332833583208396	0.09745127436281859	
1.7089488142090708E12	2.217391304347826	-6.467391304347826	3.4130434782608696	3948.7179487179483	128.0	128.0	-1.138656275112185	13.664668639262754	12.526012364150569	499.1744916647067	188.36827973941325	-3.5877862595419847	7.022900763358779	0.5954198473282443	-0.037481259370314844	0.42728635682158916	0.09895052473763118	
1.7089488142286025E12	2.1956521739130435	-6.413043478260869	3.402173913043478	3923.8095238095234	128.0	128.0	-1.132814423181346	13.67894872176036	12.546134298579014	499.171823164442	188.63693280660306	-3.0381679389312977	6.473282442748092	0.33587786259541985	-0.034482758620689655	0.4332833583208396	0.07946026986506746	
1.7089488142481345E12	2.1956521739130435	-6.4021739130434785	3.4456521739130435	3950.18315018315	128.0	128.0	-1.1230780032966141	13.741045444136315	12.617967440839701	499.1693710290636	188.35457662994585	-3.450381679389313	6.564885496183206	0.24427480916030533	-0.026986506746626684	0.4257871064467766	0.0944527736131934	
1.7089488142676663E12	2.1847826086956523	-6.391304347826087	3.434782608695652	3948.7179487179483	128.0	128.0	-1.0947342031877283	13.701017940165752	12.606283736978023	499.1618703796709	188.19958724970667	-3.801526717557252	6.519083969465648	0.6259541984732824	-0.04047976011994003	0.42728635682158916	0.09895052473763118	
1.7089488142871982E12	2.1956521739130435	-6.380434782608695	3.4130434782608696	3939.9267399267396	128.0	128.0	-1.1108173264047296	13.726116266979727	12.615298940574997	499.15912975777746	188.38299255168351	-3.7251908396946565	6.671755725190839	0.47328244274809156	-0.05547226386806597	0.416791604197901	0.095952023988006	
1.70894881430673E12	2.1630434782608696	-6.391304347826087	3.434782608695652	3948.7179487179483	128.0	128.0	-1.1233664898117173	13.706571305581488	12.58320481576977	499.1688661776622	188.19403388429095	-3.9083969465648853	6.748091603053435	0.6870229007633587	-0.04947526236881559	0.4287856071964018	0.07946026986506746	
1.708948814326262E12	2.1847826086956523	-6.413043478260869	3.402173913043478	3950.18315018315	128.0	128.0	-1.1535133306399978	13.67945357316179	12.525940242521793	499.1509800137258	188.38969986315965	-3.5725190839694654	6.671755725190839	0.8396946564885496	-0.047976011994003	0.42728635682158916	0.08845577211394302	
1.7089488143457937E12	2.217391304347826	-6.413043478260869	3.402173913043478	3948.7179487179483	128.0	128.0	-1.157263655336339	13.680607519222203	12.523343863885865	499.17571773239587	188.187903545845	-3.5572519083969465	6.488549618320611	0.6717557251908397	-0.046476761619190406	0.4287856071964018	0.08995502248875561	
1.7089488143653257E12	2.1847826086956523	-6.434782608695652	3.467391304347826	3948.7179487179483	128.0	128.0	-1.1592830609420612	13.676424464753207	12.517141403811147	499.1756456107671	188.36993853687508	-3.099236641221374	6.3969465648854955	0.6106870229007634	-0.03298350824587706	0.4197901049475262	0.09295352323838081	
1.7089488143848574E12	2.1630434782608696	-6.423913043478261	3.4565217391304346	3925.274725274725	128.0	128.0	-1.142767207952405	13.659908611763552	12.517141403811147	499.1781698677743	188.16266097577346	-3.541984732824427	6.198473282442748	0.47328244274809156	-0.037481259370314844	0.43178410794602695	0.07496251874062969	
1.7089488144043894E12	2.217391304347826	-6.467391304347826	3.4130434782608696	3922.344322344322	128.0	128.0	-1.1719764676066002	13.730371443077498	12.558394975470899	499.1803335166375	188.30502907097687	-3.4351145038167936	6.3206106870229	0.7480916030534351	-0.05247376311844078	0.42728635682158916	0.09895052473763118	
1.7089488144239211E12	2.25	-6.5	3.4456521739130435	3948.7179487179483	128.0	128.0	-0.5999077081570278	14.25621023848179	13.656302530324762	499.1765831919412	187.88290117775216	-2.8702290076335877	6.076335877862595	0.7022900763358778	-0.034482758620689655	0.42278860569715143	0.07646176911544228	
1.7089488144434531E12	2.260869565217391	-6.456521739130435	3.3043478260869565	3939.9267399267396	128.0	128.0	-0.9996778964612362	13.722726550427264	12.723048653966028	499.1967772479984	188.15588154266854	-3.2519083969465647	1.9083969465648853	0.5343511450381679	-0.047976011994003	0.43478260869565216	0.08545727136431784	
1.7089488144629849E12	2.2282608695652173	-6.4021739130434785	3.4782608695652173	3950.18315018315	128.0	128.0	-1.1197604083729278	13.719985928533784	12.600225520160857	499.191440247469	188.14758755535934	-3.4045801526717554	8.335877862595419	0.564885496183206	-0.05997001499250375	0.4197901049475262	0.09295352323838081	
1.7089488144825168E12	2.108695652173913	-6.434782608695652	3.5543478260869565	3948.7179487179483	128.0	128.0	-1.1313719906058302	13.70909556258864	12.57772357198281	499.19288268004453	188.28404167700313	-3.3587786259541983	3.6488549618320607	0.5190839694656488	-0.05397301349325337	0.41529235382308843	0.10194902548725637	
1.7089488145020486E12	2.25	-6.4021739130434785	3.3804347826086953	3948.7179487179483	128.0	128.0	-1.1387283967409607	13.721067752965421	12.58233935622446	499.19670512636964	188.20629456118283	-0.5343511450381679	9.709923664122137	0.8244274809160305	-0.026986506746626684	0.4332833583208396	0.08395802098950525	
1.7089488145215806E12	2.1956521739130435	-6.326086956521739	3.391304347826087	3948.7179487179483	128.0	128.0	-1.1296410715152112	13.704407656718214	12.574766585203003	499.20211424852783	188.35998575210402	-2.351145038167939	6.1679389312977095	1.7404580152671756	-0.05397301349325337	0.43628185907046474	0.08995502248875561	
1.7089488145411123E12	2.1956521739130435	-6.4021739130434785	3.391304347826087	3923.8095238095234	128.0	128.0	-1.1199767732592552	13.719120468988475	12.59914369572922	499.18372323319	188.2224498060286	-3.5572519083969465	9.221374045801527	0.9465648854961831	-0.05997001499250375	0.4197901049475262	0.07496251874062969	
1.7089488145606443E12	2.1630434782608696	-6.5	3.5869565217391304	3950.18315018315	128.0	128.0	-1.1015136362926528	13.730515686335051	12.629002050042399	499.1807662464102	188.3299831545333	-4.030534351145038	4.900763358778626	1.3893129770992365	-0.034482758620689655	0.41829085457271364	0.09745127436281859	
1.708948814580176E12	2.2391304347826084	-6.510869565217391	3.4239130434782608	3950.18315018315	128.0	128.0	-1.0842765670152388	13.750637620763497	12.666361053748258	499.19259419352943	188.65820868709193	-2.16793893129771	5.938931297709924	0.47328244274809156	-0.05247376311844078	0.43178410794602695	0.095952023988006	
1.708948814599708E12	2.2065217391304346	-6.434782608695652	3.5217391304347827	3939.9267399267396	128.0	128.0	-1.0134531275574121	13.748618215157773	12.735165087600361	499.15970673080767	188.40628783777808	-1.5877862595419847	5.83206106870229	0.6106870229007634	-0.04497751124437781	0.43928035982008995	0.09295352323838081	
1.7089488146192397E12	2.1847826086956523	-6.423913043478261	3.3478260869565215	3950.18315018315	128.0	128.0	-0.9815032460097368	13.783669326742809	12.802166080733071	499.1584085414897	188.72160359878583	-0.9923664122137404	6.1679389312977095	0.916030534351145	-0.0239880059970015	0.42278860569715143	0.10194902548725637	
1.7089488146387717E12	2.1739130434782608	-6.3478260869565215	3.4130434782608696	3950.18315018315	128.0	128.0	-0.9175313612856104	13.826870182379507	12.909338821093897	499.15725459542927	188.43326132694023	-1.1450381679389312	5.801526717557252	0.9618320610687022	-0.031484257871064465	0.4287856071964018	0.08995502248875561	
1.7089488146583035E12	2.1847826086956523	-6.369565217391304	3.402173913043478	3948.7179487179483	128.0	128.0	-0.9094537388627218	13.868844970327016	12.959391231464295	499.16720738020035	188.73047455912527	-2.0	5.9541984732824424	1.0076335877862594	-0.04047976011994003	0.41379310344827586	0.0704647676161919	
1.7089488146778354E12	2.1956521739130435	-6.391304347826087	3.4130434782608696	3948.7179487179483	128.0	128.0	-0.9489042698030794	13.829178074500334	12.880273804697254	499.17369832679015	188.46448999220016	-2.1526717557251906	6.061068702290076	0.8854961832061068	-0.04047976011994003	0.42728635682158916	0.09295352323838081	
1.7089488146973672E12	2.2065217391304346	-6.434782608695652	3.4782608695652173	3925.274725274725	128.0	128.0	-0.9951342338483613	13.737222997811198	12.742088763962837	499.1618703796709	188.7547795480227	-1.8778625954198473	6.305343511450381	0.6564885496183206	-0.046476761619190406	0.4287856071964018	0.07946026986506746	
1.7089488147168992E12	2.217391304347826	-6.423913043478261	3.5	3950.18315018315	128.0	128.0	-1.032421115925445	13.635603622866109	12.603182506940664	499.15372063561927	188.88596879076587	-2.229007633587786	6.290076335877862	0.7480916030534351	-0.05997001499250375	0.416791604197901	0.08545727136431784	
1.708948814736431E12	2.2065217391304346	-6.434782608695652	3.467391304347826	3950.18315018315	128.0	128.0	-1.0392005490303695	13.589445780449603	12.550245231419234	499.15768732520195	188.81925628414825	-2.16793893129771	6.6106870229007635	0.6717557251908397	-0.031484257871064465	0.4257871064467766	0.08695652173913043	
1.708948814755963E12	2.1739130434782608	-6.434782608695652	3.4239130434782608	3938.461538461538	128.0	128.0	-1.045547252362639	13.546100681555354	12.500553429192715	499.17312135375994	188.9520322027245	-1.5725190839694656	6.885496183206107	0.5801526717557252	-0.04497751124437781	0.424287856071964	0.09295352323838081	
1.7089488147754946E12	2.2717391304347827	-6.434782608695652	3.3260869565217392	3948.7179487179483	128.0	128.0	-1.0456193739914148	13.55901045310622	12.513391079114806	499.1733377186463	188.88092027675157	0.10687022900763359	6.2748091603053435	0.7633587786259541	-0.04947526236881559	0.4287856071964018	0.08395802098950525	
1.7089488147950266E12	2.130434782608696	-6.33695652173913	3.608695652173913	3948.7179487179483	128.0	128.0	-1.0350896161901495	13.545667951782699	12.51057833559255	499.16251947432994	189.00244522123876	-0.4580152671755725	7.679389312977099	0.6106870229007634	-0.046476761619190406	0.4332833583208396	0.07946026986506746	
1.7089488148145583E12	2.1847826086956523	-6.3478260869565215	3.4782608695652173	3948.7179487179483	128.0	128.0	-1.0432393602418137	13.523742976634857	12.480503616393044	499.170524975124	188.94049274212037	-2.6259541984732824	6.961832061068702	0.47328244274809156	-0.05697151424287856	0.4332833583208396	0.10194902548725637	
1.7089488148340903E12	2.1739130434782608	-6.413043478260869	3.467391304347826	3948.7179487179483	128.0	128.0	-1.0184295199429418	13.522949638718325	12.504520118775384	499.1730492321312	189.050622469261	-1.9541984732824427	7.129770992366412	0.9312977099236641	-0.046476761619190406	0.4407796101949025	0.09745127436281859	
1.7089488148536223E12	2.1847826086956523	-6.4021739130434785	3.5652173913043477	3923.8095238095234	128.0	128.0	-1.0130203977847574	13.515737475840746	12.502717078055989	499.1738425700477	188.88539181773567	-2.1068702290076335	6.854961832061068	0.6870229007633587	-0.047976011994003	0.424287856071964	0.07796101949025487	
1.708948814873154E12	2.1956521739130435	-6.456521739130435	3.5543478260869565	3948.7179487179483	128.0	128.0	-1.0275168451686914	13.535643045382864	12.508126200214173	499.1776650163728	189.17380621121006	-2.8702290076335877	7.2824427480916025	0.732824427480916	-0.025487256371814093	0.424287856071964	0.08095952023988005	
1.708948814892686E12	2.2065217391304346	-6.478260869565217	3.4891304347826084	3948.7179487179483	128.0	128.0	-1.027300480282364	13.536508504928173	12.50920802464581	499.16619767739746	189.0163646955925	-2.2900763358778624	7.007633587786259	0.42748091603053434	-0.06146926536731634	0.41829085457271364	0.08695652173913043	
1.7089488149122178E12	2.1739130434782608	-6.4021739130434785	3.5760869565217392	3939.9267399267396	128.0	128.0	-1.0149676817617037	13.514006556750125	12.499038874988422	499.16425039342056	189.29085961471316	-1.5572519083969465	7.007633587786259	0.8854961832061068	-0.05397301349325337	0.43628185907046474	0.08395802098950525	
1.7089488149317498E12	2.1847826086956523	-6.358695652173913	3.4782608695652173	3920.879120879121	128.0	128.0	-1.0234780339572471	13.508308948076838	12.484830914119591	499.18776204440144	189.13327385583807	-2.0763358778625953	6.015267175572519	0.8702290076335878	-0.041979010494752625	0.4257871064467766	0.10494752623688156	
1.7089488149512815E12	2.1956521739130435	-6.358695652173913	3.4782608695652173	3948.7179487179483	128.0	128.0	-1.013525249186188	13.485951243156343	12.472425993970155	499.18127109781165	189.35915879716384	-2.396946564885496	6.65648854961832	0.6412213740458015	-0.04947526236881559	0.4257871064467766	0.07946026986506746	
1.7089488149708135E12	2.217391304347826	-6.391304347826087	3.510869565217391	3948.7179487179483	128.0	128.0	-1.0288871561154314	13.494461595351886	12.465574439236455	499.1685055695183	189.21167006631734	-2.9923664122137406	6.412213740458015	0.6106870229007634	-0.029985007496251874	0.42728635682158916	0.08545727136431784	
1.7089488149903452E12	2.2391304347826084	-6.423913043478261	3.5217391304347827	3948.7179487179483	128.0	128.0	-1.0234780339572471	13.480037269596728	12.456559235639482	499.17571773239587	189.47491401134897	-3.114503816793893	6.65648854961832	0.564885496183206	-0.034482758620689655	0.4332833583208396	0.07646176911544228	
1.7089488150098772E12	2.1847826086956523	-6.456521739130435	3.543478260869565	3926.7399267399264	128.0	128.0	-1.0183573983141658	13.486456094557774	12.468098696243608	499.1712461914118	189.31379429266386	-3.3435114503816794	6.916030534351145	0.5190839694656488	-0.04047976011994003	0.4197901049475262	0.08545727136431784	
1.708948815029409E12	2.2282608695652173	-6.434782608695652	3.467391304347826	3950.18315018315	128.0	128.0	-1.0171313306249774	13.472752985090374	12.455621654465396	499.1786025975469	189.0891354190273	-3.099236641221374	6.351145038167939	0.6564885496183206	-0.041979010494752625	0.4287856071964018	0.09745127436281859	
1.708948815048941E12	2.2065217391304346	-6.413043478260869	3.5543478260869565	3948.7179487179483	128.0	128.0	-0.9841717462744412	13.488836108307376	12.504664362032935	499.1776650163728	189.42890041219002	-2.427480916030534	6.65648854961832	0.04580152671755725	-0.025487256371814093	0.43928035982008995	0.08545727136431784	
1.7089488150684727E12	2.217391304347826	-6.380434782608695	3.510869565217391	3939.9267399267396	128.0	128.0	-0.9641219334747713	13.465180214068917	12.501058280594146	499.1875456795151	189.1900335776846	-2.595419847328244	6.717557251908397	0.33587786259541985	-0.034482758620689655	0.41829085457271364	0.07346326836581708	
1.7089488150880046E12	2.1847826086956523	-6.369565217391304	3.532608695652174	3950.18315018315	128.0	128.0	-0.9717668261250051	13.491576730200856	12.519809904075851	499.18747355788634	189.5317458548243	-2.748091603053435	6.6106870229007635	0.42748091603053434	-0.046476761619190406	0.42278860569715143	0.0944527736131934	
1.7089488151075364E12	2.1956521739130435	-6.369565217391304	3.5	3951.6483516483513	128.0	128.0	-0.9764547319954315	13.494822203495767	12.518367471500335	499.18379535481876	189.2717473830876	-2.519083969465649	6.519083969465648	0.3511450381679389	-0.04497751124437781	0.42728635682158916	0.08845577211394302	
1.7089488151270684E12	2.1847826086956523	-6.369565217391304	3.5217391304347827	3948.7179487179483	128.0	128.0	-1.0156888980494616	13.43171577831695	12.416026880267488	499.1684334478895	189.63668282469308	-2.564885496183206	6.5038167938931295	0.5190839694656488	-0.046476761619190406	0.4332833583208396	0.10494752623688156	
1.7089488151466E12	2.2282608695652173	-6.4021739130434785	3.4782608695652173	3947.252747252747	128.0	128.0	-1.0046542888467658	13.425513318242231	12.420859029395466	499.18321838178855	189.40711968029973	-2.33587786259542	6.015267175572519	0.6259541984732824	-0.026986506746626684	0.4407796101949025	0.10194902548725637	
1.708948815166132E12	2.260869565217391	-6.413043478260869	3.5217391304347827	3928.205128205128	128.0	128.0	-0.9994615315749088	13.414334465781984	12.414872934207075	499.1894208418633	189.49582928369395	-2.33587786259542	5.9541984732824424	0.7786259541984732	-0.038980509745127435	0.42278860569715143	0.08395802098950525	
1.7089488151856638E12	2.217391304347826	-6.423913043478261	3.543478260869565	3950.18315018315	128.0	128.0	-1.0014809371806308	13.408132005707266	12.406651068526635	499.1958396668243	189.70469352062864	-2.015267175572519	6.412213740458015	0.5038167938931297	-0.05247376311844078	0.4422788605697151	0.08845577211394302	
1.7089488152051958E12	2.2282608695652173	-6.4021739130434785	3.5	3950.18315018315	128.0	128.0	-0.9868402465391454	13.394428896239866	12.40758864970072	499.2066579111407	189.8192226671246	-2.259541984732824	7.068702290076335	0.8244274809160305	-0.038980509745127435	0.42278860569715143	0.09745127436281859	
1.7089488152247275E12	2.217391304347826	-6.369565217391304	3.543478260869565	3939.9267399267396	128.0	128.0	-0.694603406739641	13.68392511414589	12.989321707406248	499.18805053091654	189.93728577343057	-1.8778625954198473	6.7328244274809155	1.0381679389312977	-0.038980509745127435	0.41829085457271364	0.08395802098950525	
1.7089488152442595E12	2.2717391304347827	-6.358695652173913	3.5978260869565215	3948.7179487179483	128.0	128.0	-0.7075852999192834	13.825644114690318	13.118058814771034	499.19995059966453	189.89076732287018	-2.6412213740458013	6.351145038167939	0.5343511450381679	-0.04047976011994003	0.424287856071964	0.09895052473763118	
1.7089488152637913E12	2.260869565217391	-6.3478260869565215	3.3260869565217392	3950.18315018315	128.0	128.0	-0.9385187552593656	13.381447003060224	12.442928247800857	499.19612815333943	190.28346959155436	-4.65648854961832	3.1908396946564883	0.6870229007633587	-0.041979010494752625	0.44377811094452774	0.08695652173913043	
1.7089488152833232E12	2.0978260869565215	-6.4021739130434785	3.8043478260869565	3948.7179487179483	128.0	128.0	-0.9442884855614287	13.429624251082451	12.485335765521022	499.1884832606892	190.31808797336674	-2.8854961832061066	10.48854961832061	0.6412213740458015	-0.046476761619190406	0.4332833583208396	0.08395802098950525	
1.708948815302855E12	2.3152173913043477	-6.413043478260869	3.25	3948.7179487179483	128.0	128.0	-0.944216363932653	13.393563436694556	12.449347072761903	499.18292989527345	190.66513725103584	-3.66412213740458	5.267175572519084	0.6259541984732824	-0.037481259370314844	0.4197901049475262	0.09295352323838081	
1.708948815322387E12	2.260869565217391	-6.369565217391304	3.6630434782608696	3931.135531135531	128.0	128.0	-0.9271235379127906	13.397025274875793	12.469901736963003	499.18112685455407	190.45980697391118	-1.9389312977099236	10.977099236641221	1.114503816793893	-0.046476761619190406	0.4257871064467766	0.08695652173913043	
1.7089488153419187E12	2.25	-6.326086956521739	3.5	3920.879120879121	128.0	128.0	-0.9187574289747988	13.39176039597516	12.473002967000362	499.18069412478144	190.79214343931002	-3.3740458015267176	5.435114503816794	1.4961832061068703	-0.031484257871064465	0.42278860569715143	0.07946026986506746	
1.7089488153614507E12	2.1956521739130435	-6.434782608695652	3.619565217391304	3944.322344322344	128.0	128.0	-0.9031070355304522	13.398323464193757	12.495216428663305	499.1631685689889	190.70992478250562	-5.450381679389313	7.221374045801526	0.9465648854961831	-0.04047976011994003	0.424287856071964	0.10344827586206896	
1.7089488153809824E12	2.2065217391304346	-6.489130434782608	3.543478260869565	3939.9267399267396	128.0	128.0	-0.8841390471624193	13.405535627071338	12.521396579908918	499.1703807318665	191.0411794234728	-3.49618320610687	3.6488549618320607	0.8549618320610687	-0.03298350824587706	0.424287856071964	0.08845577211394302	
1.7089488154005144E12	2.2065217391304346	-6.413043478260869	3.543478260869565	3948.7179487179483	128.0	128.0	-0.8533431116751566	13.421330263773235	12.567987152098079	499.1809104896677	190.93898307549753	-1.4809160305343512	6.33587786259542	0.5343511450381679	-0.046476761619190406	0.4332833583208396	0.08395802098950525	
1.7089488154200461E12	2.1739130434782608	-6.3478260869565215	3.5	3950.18315018315	128.0	128.0	-0.8074737557737537	13.436547927444927	12.629074171671174	499.17795350288793	191.15484311042349	-1.9694656488549618	6.473282442748092	0.5343511450381679	-0.03298350824587706	0.4197901049475262	0.10344827586206896	
1.7089488154395781E12	2.1847826086956523	-6.315217391304348	3.467391304347826	3950.18315018315	128.0	128.0	-0.753238290934359	13.470012363196894	12.716774072262535	499.1671352585716	190.8404649305898	-2.9923664122137406	6.65648854961832	0.8091603053435115	-0.04497751124437781	0.42728635682158916	0.07496251874062969	
1.7089488154591099E12	2.2282608695652173	-6.3478260869565215	3.510869565217391	3950.18315018315	128.0	128.0	-0.7357127351418419	13.503116190804983	12.76740345566314	499.1436957292194	191.038871531352	-4.244274809160305	6.229007633587786	0.732824427480916	-0.038980509745127435	0.4332833583208396	0.08395802098950525	
1.7089488154786418E12	2.217391304347826	-6.4021739130434785	3.4891304347826084	3922.344322344322	128.0	128.0	-0.7354963702555145	13.493812500692906	12.758316130437391	499.1510521353546	191.28985479949176	-4.824427480916031	6.809160305343511	0.916030534351145	-0.038980509745127435	0.4287856071964018	0.09745127436281859	
1.7089488154981736E12	2.2065217391304346	-6.423913043478261	3.510869565217391	3922.344322344322	128.0	128.0	-0.8107192290686642	13.457823807933785	12.647104578865122	499.16035582546664	191.12649931031459	-3.9847328244274807	7.526717557251908	1.2519083969465647	-0.034482758620689655	0.4332833583208396	0.08995502248875561	
1.7089488155177056E12	2.217391304347826	-6.4021739130434785	3.4891304347826084	3950.18315018315	128.0	128.0	-0.8440394215630797	13.35685352764768	12.5128141060846	499.1881226525453	191.41729371753857	-3.9236641221374042	6.595419847328244	0.6259541984732824	-0.037481259370314844	0.42728635682158916	0.08545727136431784	
1.7089488155372373E12	2.217391304347826	-6.380434782608695	3.467391304347826	3939.9267399267396	128.0	128.0	-0.8542806928492419	13.272399100351228	12.418118407501986	499.19915726174804	191.2343211453344	-3.480916030534351	6.65648854961832	0.8244274809160305	-0.04947526236881559	0.43628185907046474	0.08995502248875561	
1.7089488155567693E12	2.2282608695652173	-6.358695652173913	3.510869565217391	3948.7179487179483	128.0	128.0	-0.8696425997784853	13.23446312361516	12.364820523836675	499.1974984642862	191.5173264166506	-4.152671755725191	6.427480916030534	0.7786259541984732	-0.04047976011994003	0.4422788605697151	0.08095952023988005	
1.708948815576301E12	2.1847826086956523	-6.391304347826087	3.4565217391304346	3948.7179487179483	128.0	128.0	-0.874546870535239	13.239655880887018	12.365109010351778	499.2042057757623	191.3126452341849	-3.16030534351145	8.412213740458014	0.9770992366412213	-0.05547226386806597	0.424287856071964	0.08095952023988005	
1.708948815595833E12	2.217391304347826	-6.326086956521739	3.4130434782608696	3948.7179487179483	128.0	128.0	-0.8818311550415939	13.235617069675573	12.35378591463398	499.2037730459897	191.5885104642523	-2.8702290076335877	6.244274809160305	1.0534351145038168	-0.05547226386806597	0.424287856071964	0.08545727136431784	
1.7089488156153647E12	2.1956521739130435	-6.413043478260869	3.510869565217391	3948.7179487179483	128.0	128.0	-0.8655316669382652	13.225447920018187	12.359916253079922	499.2043500190199	191.55540663664422	-4.213740458015267	8.0	1.3740458015267174	-0.017991004497751123	0.43178410794602695	0.08545727136431784	
1.7089488156348967E12	2.217391304347826	-6.391304347826087	3.5543478260869565	3922.344322344322	128.0	128.0	-0.8643055992490768	13.209076310286083	12.344770711037006	499.2060088164817	191.71378573343586	-4.641221374045801	7.145038167938931	1.0229007633587786	-0.037481259370314844	0.42728635682158916	0.07496251874062969	
1.7089488156544285E12	2.25	-6.434782608695652	3.4891304347826084	3948.7179487179483	128.0	128.0	-0.8544249361067935	13.218452122026935	12.364027185920142	499.2122833981852	191.66560848541363	-3.3740458015267176	7.786259541984733	0.9923664122137404	-0.047976011994003	0.424287856071964	0.08845577211394302	
1.7089488156739604E12	2.1956521739130435	-6.423913043478261	3.5543478260869565	3948.7179487179483	128.0	128.0	-0.8588964770908925	13.230424312403716	12.371527835312824	499.19187297724164	191.83451734000653	-3.1908396946564883	8.748091603053435	0.8396946564885496	-0.04047976011994003	0.41379310344827586	0.08095952023988005	
1.7089488156934922E12	2.1739130434782608	-6.391304347826087	3.5217391304347827	3938.461538461538	128.0	128.0	-0.8640171127339736	13.212249661952217	12.348232549218244	499.20593669485294	191.99491584240388	-3.8931297709923665	8.931297709923664	0.6717557251908397	-0.029985007496251874	0.43178410794602695	0.08545727136431784	
1.7089488157130242E12	2.1956521739130435	-6.358695652173913	3.510869565217391	3948.7179487179483	128.0	128.0	-0.870796545838898	13.213547851270182	12.342751305431284	499.1995178698919	192.22851779800868	-3.9389312977099236	8.213740458015266	0.9312977099236641	-0.04497751124437781	0.416791604197901	0.07796101949025487	
1.708948815732556E12	2.1847826086956523	-6.380434782608695	3.4456521739130435	3948.7179487179483	128.0	128.0	-0.8687771402331759	13.206335688392603	12.337558548159427	499.20810034371624	192.43175654789886	-4.595419847328244	7.190839694656488	1.3129770992366412	-0.04047976011994003	0.4452773613193403	0.08095952023988005	
1.708948815752088E12	2.1847826086956523	-6.380434782608695	3.5217391304347827	3947.252747252747	128.0	128.0	-0.8718783702705348	13.200421714832988	12.328543344562453	499.1954069370517	192.33215657855948	-4.534351145038168	7.862595419847328	1.0381679389312977	-0.041979010494752625	0.43628185907046474	0.07646176911544228	
1.7089488157716196E12	2.217391304347826	-6.413043478260869	3.4891304347826084	3948.7179487179483	128.0	128.0	-0.8610601259541663	13.175828239420444	12.314768113466277	499.20766761394356	192.9645190196656	-5.007633587786259	7.465648854961832	1.0534351145038168	-0.04047976011994003	0.424287856071964	0.08845577211394302	
1.7089488157911516E12	2.2282608695652173	-6.423913043478261	3.4565217391304346	3925.274725274725	128.0	128.0	-0.8821196415566971	13.184987686274969	12.302868044718272	499.21134581701114	192.81818423487954	-4.564885496183206	7.786259541984733	0.8244274809160305	-0.05397301349325337	0.4257871064467766	0.08995502248875561	
1.7089488158106833E12	2.217391304347826	-6.423913043478261	3.4782608695652173	3950.18315018315	128.0	128.0	-0.8730323163309475	13.193786524985615	12.320754208654668	499.1803335166375	193.1841293792879	-3.66412213740458	7.893129770992366	1.0534351145038168	-0.037481259370314844	0.4197901049475262	0.08095952023988005	
1.7089488158302153E12	2.1739130434782608	-6.380434782608695	3.4782608695652173	3950.18315018315	128.0	128.0	-0.8666134913699021	13.177342793624735	12.310729302254833	499.1800450301224	192.94858013970617	-3.450381679389313	7.526717557251908	0.5954198473282443	-0.031484257871064465	0.4287856071964018	0.07646176911544228	
1.708948815849747E12	2.152173913043478	-6.33695652173913	3.467391304347826	3939.9267399267396	128.0	128.0	-0.8432460836465459	13.197897457825835	12.354651374179289	499.1941087477337	193.3089719186988	-3.282442748091603	7.007633587786259	1.0076335877862594	-0.04047976011994003	0.43178410794602695	0.08545727136431784	
1.708948815869279E12	2.1739130434782608	-6.380434782608695	3.4239130434782608	3950.18315018315	128.0	128.0	-0.8379090831171374	13.217153932708973	12.379244849591835	499.20182576201273	193.0416891624557	-3.9389312977099236	6.900763358778626	0.549618320610687	-0.0239880059970015	0.41079460269865065	0.07346326836581708	
1.7089488158888108E12	2.1956521739130435	-6.391304347826087	3.4239130434782608	3950.18315018315	128.0	128.0	-0.8677674374303148	13.241098313462533	12.373330876032218	499.21076884398093	193.3178428790382	-3.6946564885496183	6.702290076335878	0.7786259541984732	-0.037481259370314844	0.43178410794602695	0.08095952023988005	
1.7089488159083428E12	2.1847826086956523	-6.391304347826087	3.434782608695652	3948.7179487179483	128.0	128.0	-0.8958948726528732	13.219101216685917	12.323206344033045	499.21177854678376	193.03743398635794	-3.3893129770992365	7.038167938931298	0.6564885496183206	-0.04947526236881559	0.4332833583208396	0.07646176911544228	
1.7089488159278745E12	2.1956521739130435	-6.413043478260869	3.467391304347826	3950.18315018315	128.0	128.0	-0.9155840773086641	13.183545253699453	12.26796117639079	499.21040823583706	192.89643620210126	-3.6488549618320607	6.854961832061068	0.6259541984732824	-0.037481259370314844	0.42728635682158916	0.08545727136431784	
1.7089488159474065E12	2.1956521739130435	-6.423913043478261	3.4239130434782608	3922.344322344322	128.0	128.0	-0.9029627922729007	13.151090520750346	12.248127728477446	499.19050266629495	193.08128393665362	-3.0076335877862594	6.2748091603053435	0.6564885496183206	-0.037481259370314844	0.43478260869565216	0.09295352323838081	
1.7089488159669382E12	2.1847826086956523	-6.369565217391304	3.4782608695652173	3950.18315018315	128.0	128.0	-0.9031070355304522	13.166380306050815	12.263273270520363	499.1879784092878	192.8966525669876	-2.045801526717557	6.412213740458015	0.8702290076335878	-0.034482758620689655	0.41829085457271364	0.08695652173913043	
1.7089488159864702E12	2.217391304347826	-6.3478260869565215	3.434782608695652	3948.7179487179483	128.0	128.0	-0.9104634416655829	13.171356698436345	12.260893256770762	499.1928105584158	193.0291399990487	-2.1526717557251906	6.442748091603053	0.7786259541984732	-0.04047976011994003	0.4197901049475262	0.08095952023988005	
1.708948816006002E12	2.2282608695652173	-6.413043478260869	3.4782608695652173	3938.461538461538	128.0	128.0	-0.9276283893142211	13.175756117791666	12.248127728477446	499.1825692871296	192.81428966692565	-2.4427480916030535	7.1603053435114505	0.7786259541984732	-0.026986506746626684	0.4287856071964018	0.09745127436281859	
1.708948816025534E12	2.260869565217391	-6.4021739130434785	3.510869565217391	3948.7179487179483	128.0	128.0	-0.45386140988605145	13.807036734466164	13.353175324580112	499.208172465345	192.6997605204297	-2.717557251908397	6.8396946564885495	0.5190839694656488	-0.04497751124437781	0.4197901049475262	0.08845577211394302	
1.7089488160450657E12	2.217391304347826	-6.358695652173913	3.434782608695652	3948.7179487179483	128.0	128.0	-0.822547176187894	13.274634870843277	12.452087694655383	499.21134581701114	192.63788016294006	-2.564885496183206	5.862595419847328	0.916030534351145	-0.034482758620689655	0.43628185907046474	0.08395802098950525	
1.7089488160645977E12	2.1956521739130435	-6.3478260869565215	3.434782608695652	3948.7179487179483	128.0	128.0	-0.8772874924287192	13.16594757627816	12.288660083849441	499.2018978836415	192.969856020195	-4.763358778625954	5.175572519083969	0.6106870229007634	-0.038980509745127435	0.4287856071964018	0.08695652173913043	
1.7089488160841294E12	2.108695652173913	-6.4021739130434785	3.7391304347826084	3948.7179487179483	128.0	128.0	-0.8848602634501772	13.204749012559535	12.319888749109358	499.2093985330342	193.02726483670054	-4.061068702290076	9.374045801526718	0.4580152671755725	-0.04047976011994003	0.43178410794602695	0.08545727136431784	
1.7089488161036614E12	2.3152173913043477	-6.423913043478261	3.217391304347826	3923.8095238095234	128.0	128.0	-0.8867354257983477	13.17279913101186	12.286063705213513	499.2049269920501	193.33616177274726	-3.49618320610687	7.358778625954198	0.3511450381679389	-0.031484257871064465	0.4287856071964018	0.08695652173913043	
1.708948816123193E12	2.2065217391304346	-6.4021739130434785	3.5978260869565215	3948.7179487179483	128.0	128.0	-0.8909906018961194	13.200349593204212	12.309358991308093	499.20312395133067	193.01702356541438	-1.5572519083969465	9.770992366412214	0.9618320610687022	-0.04947526236881559	0.41529235382308843	0.07346326836581708	
1.708948816142725E12	2.2282608695652173	-6.434782608695652	3.4239130434782608	3948.7179487179483	128.0	128.0	-0.8747632354215665	13.201359296007073	12.326596060585507	499.20254697830046	193.14878978118776	-3.5877862595419847	6.641221374045801	0.9465648854961831	-0.03298350824587706	0.42728635682158916	0.07796101949025487	
1.7089488161622568E12	2.152173913043478	-6.478260869565217	3.641304347826087	3939.9267399267396	128.0	128.0	-0.8826966145869035	13.23208310986556	12.349386495278656	499.20297970807314	192.87032817248442	-4.351145038167939	7.190839694656488	0.564885496183206	-0.05397301349325337	0.43628185907046474	0.08695652173913043	
1.7089488161817888E12	2.1956521739130435	-6.434782608695652	3.5217391304347827	3948.7179487179483	128.0	128.0	-0.8630074099311126	13.236987380622313	12.3739799706912	499.1917287339841	193.0351260942371	-2.748091603053435	4.106870229007633	0.4580152671755725	-0.037481259370314844	0.43178410794602695	0.095952023988006	
1.7089488162013206E12	2.1847826086956523	-6.413043478260869	3.510869565217391	3948.7179487179483	128.0	128.0	-0.8561558551974124	13.266485126791613	12.4103292715942	499.2003833294372	193.3404890704738	-2.045801526717557	6.2748091603053435	0.22900763358778625	-0.047976011994003	0.424287856071964	0.08845577211394302	
1.7089488162208525E12	2.2065217391304346	-6.380434782608695	3.4239130434782608	3948.7179487179483	128.0	128.0	-0.81216166164418	13.307305968678708	12.49514430703453	499.19107963932515	193.01226353791517	-2.595419847328244	6.213740458015267	0.3511450381679389	-0.041979010494752625	0.42278860569715143	0.06896551724137931	
1.7089488162403843E12	2.217391304347826	-6.3478260869565215	3.4565217391304346	3948.7179487179483	128.0	128.0	-0.7854045373683617	13.344881337270897	12.559476799902535	499.19244995027185	193.21492531477517	-2.8091603053435112	6.625954198473282	0.6717557251908397	-0.038980509745127435	0.4332833583208396	0.08995502248875561	
1.7089488162599163E12	2.2065217391304346	-6.380434782608695	3.510869565217391	3923.8095238095234	128.0	128.0	-0.7680232248333961	13.40531926218501	12.637296037351614	499.1953348154229	192.853740197866	-3.709923664122137	6.2748091603053435	0.5954198473282443	-0.05547226386806597	0.43178410794602695	0.08845577211394302	
1.708948816279448E12	2.1739130434782608	-6.391304347826087	3.5217391304347827	3922.344322344322	128.0	128.0	-0.7861257536561196	13.387937949650043	12.601812195993924	499.19699361288474	193.11157502073945	-4.122137404580153	6.671755725190839	0.6106870229007634	-0.041979010494752625	0.4332833583208396	0.08695652173913043	
1.70894881629898E12	2.1956521739130435	-6.434782608695652	3.4891304347826084	3948.7179487179483	128.0	128.0	-0.8700753295511401	13.304493225156454	12.434417895605314	499.1855983955382	192.86037538771336	-4.580152671755725	6.458015267175572	0.6412213740458015	-0.017991004497751123	0.424287856071964	0.07496251874062969	
1.7089488163185117E12	2.2065217391304346	-6.434782608695652	3.4782608695652173	3938.461538461538	128.0	128.0	-0.9111846579533408	13.229414609600855	12.318229951647515	499.1746359079643	193.15160252471003	-4.137404580152672	6.625954198473282	0.6564885496183206	-0.04947526236881559	0.4332833583208396	0.09745127436281859	
1.7089488163380437E12	2.2282608695652173	-6.456521739130435	3.5	3950.18315018315	128.0	128.0	-0.9377254173428319	13.184843443017417	12.247118025674585	499.18538203065185	192.72579642841774	-3.877862595419847	6.549618320610687	0.8091603053435115	-0.05397301349325337	0.4257871064467766	0.0944527736131934	
1.7089488163575754E12	2.217391304347826	-6.445652173913043	3.4565217391304346	3950.18315018315	128.0	128.0	-0.9313787140105623	13.16544272487673	12.234064010866167	499.19288268004453	192.93480490860998	-3.709923664122137	6.122137404580153	0.5343511450381679	-0.038980509745127435	0.4332833583208396	0.09745127436281859	
1.7089488163771074E12	2.2282608695652173	-6.423913043478261	3.4891304347826084	3948.7179487179483	128.0	128.0	-0.9421969583269308	13.170635482148587	12.228438523821655	499.18595900368206	192.89117132320064	-3.129770992366412	6.824427480916031	0.47328244274809156	-0.04047976011994003	0.4422788605697151	0.08545727136431784	
1.7089488163966392E12	2.2391304347826084	-6.369565217391304	3.3804347826086953	3948.7179487179483	128.0	128.0	-0.955611581279228	13.18686284862314	12.23125126734391	499.2012487889825	192.63997169017455	-2.427480916030534	5.572519083969466	0.8091603053435115	-0.029985007496251874	0.43928035982008995	0.07796101949025487	
1.7089488164161711E12	2.1956521739130435	-6.4021739130434785	3.5	3938.461538461538	128.0	128.0	-0.9456587965081689	13.161548156922837	12.215889360414668	499.20175364038397	192.70581873724686	-2.6717557251908395	7.297709923664121	0.7633587786259541	-0.041979010494752625	0.43628185907046474	0.08695652173913043	
1.708948816435703E12	2.2282608695652173	-6.380434782608695	3.543478260869565	3948.7179487179483	128.0	128.0	-0.9587128113165869	13.192560457296427	12.23384764597984	499.1863196118259	192.62576372930573	-3.5877862595419847	6.687022900763359	0.6259541984732824	-0.047976011994003	0.416791604197901	0.08545727136431784	
1.7089488164552349E12	2.260869565217391	-6.413043478260869	3.467391304347826	3948.7179487179483	128.0	128.0	-0.9468848641973573	13.180660388548421	12.233775524351064	499.2000948429221	192.73827347019596	-3.480916030534351	5.511450381679389	0.549618320610687	-0.047976011994003	0.43928035982008995	0.07496251874062969	
1.7089488164747666E12	2.2282608695652173	-6.423913043478261	3.543478260869565	3936.9963369963366	128.0	128.0	-0.9489042698030794	13.20950904005874	12.260604770255659	499.1958396668243	192.6907453168327	-3.4351145038167936	7.068702290076335	0.21374045801526717	-0.038980509745127435	0.4332833583208396	0.08695652173913043	
1.7089488164942986E12	2.2391304347826084	-6.445652173913043	3.5	3948.7179487179483	128.0	128.0	-0.9515727700677836	13.191911362637445	12.24033859256966	499.20269122155804	192.80260596306397	-3.633587786259542	7.099236641221374	0.2748091603053435	-0.05247376311844078	0.4422788605697151	0.095952023988006	
1.7089488165138303E12	2.2282608695652173	-6.413043478260869	3.4891304347826084	3947.252747252747	128.0	128.0	-0.9433509043873435	13.181958577866386	12.238607673479041	499.18963720674964	192.5305631793217	-3.0839694656488548	7.83206106870229	0.48854961832061067	-0.041979010494752625	0.41529235382308843	0.08995502248875561	
1.7089488165333623E12	2.2717391304347827	-6.391304347826087	3.4565217391304346	3947.252747252747	128.0	128.0	-0.9537364189310574	13.19746472805318	12.243728309122123	499.19079115281005	192.736326186219	-3.2519083969465647	6.595419847328244	0.8091603053435115	-0.05547226386806597	0.4197901049475262	0.09295352323838081	
1.708948816552894E12	2.2282608695652173	-6.4021739130434785	3.5	3939.9267399267396	128.0	128.0	-0.9644825416186502	13.178568861313924	12.214086319695273	499.18906023371943	192.5227740434139	-3.6030534351145036	6.763358778625954	0.7786259541984732	-0.034482758620689655	0.4332833583208396	0.08695652173913043	
1.708948816572426E12	2.217391304347826	-6.423913043478261	3.467391304347826	3941.391941391941	128.0	128.0	-0.9590734194604659	13.188016794683552	12.228943375223086	499.18595900368206	192.68728347865147	-3.5572519083969465	6.351145038167939	0.8854961832061068	-0.04497751124437781	0.43178410794602695	0.09295352323838081	
1.7089488165919578E12	2.2282608695652173	-6.434782608695652	3.5217391304347827	3948.7179487179483	128.0	128.0	-0.9523661079843174	13.193209551955409	12.240843443971091	499.18357898993247	192.42440014176373	-3.7251908396946565	6.6106870229007635	0.8854961832061068	-0.05247376311844078	0.4197901049475262	0.09295352323838081	
1.7089488166114897E12	2.2282608695652173	-6.434782608695652	3.4782608695652173	3948.7179487179483	128.0	128.0	-0.950418824007371	13.183401010441901	12.23298218643453	499.1917287339841	192.53900140988844	-3.3740458015267176	6.595419847328244	0.8702290076335878	-0.037481259370314844	0.4197901049475262	0.08095952023988005	
1.7089488166310215E12	2.2717391304347827	-6.4021739130434785	3.4239130434782608	3936.9963369963366	128.0	128.0	-0.9589291762029143	13.189098619115189	12.230169442912274	499.18538203065185	192.2838350872797	-3.49618320610687	6.106870229007633	0.7786259541984732	-0.037481259370314844	0.4197901049475262	0.08095952023988005	
1.7089488166505535E12	2.2282608695652173	-6.380434782608695	3.467391304347826	3950.18315018315	128.0	128.0	-0.9587849329453627	13.192632578925203	12.23384764597984	499.1742031781916	191.90223954942698	-3.282442748091603	6.427480916030534	0.8549618320610687	-0.04047976011994003	0.43928035982008995	0.08545727136431784	
1.7089488166700852E12	2.25	-6.391304347826087	3.4782608695652173	3948.7179487179483	128.0	128.0	-0.9414036204103972	13.236771015735988	12.29536739532559	499.19360389633226	192.06213320042292	-3.5572519083969465	6.152671755725191	0.5801526717557252	-0.04947526236881559	0.43628185907046474	0.08395802098950525	
1.7089488166896172E12	2.25	-6.434782608695652	3.4565217391304346	3950.18315018315	128.0	128.0	-0.9212095643531757	13.249248057514198	12.328038493161023	499.19374813958984	191.72323366680547	-4.244274809160305	6.778625954198473	0.7175572519083969	-0.038980509745127435	0.41079460269865065	0.08395802098950525	
1.708948816709149E12	2.2282608695652173	-6.423913043478261	3.4565217391304346	3950.18315018315	128.0	128.0	-0.9313787140105623	13.269153627056316	12.337774913045754	499.1912238825827	191.75763568373154	-3.7251908396946565	6.412213740458015	0.8396946564885496	-0.05997001499250375	0.424287856071964	0.09295352323838081	
1.708948816728681E12	2.2391304347826084	-6.413043478260869	3.4891304347826084	3925.274725274725	128.0	128.0	-0.9471012290836847	13.269081505427542	12.321980276343856	499.1959117884531	191.43193440818007	-3.2671755725190836	6.534351145038167	1.114503816793893	-0.041979010494752625	0.42278860569715143	0.08695652173913043	
1.7089488167482126E12	2.2282608695652173	-6.391304347826087	3.4456521739130435	3950.18315018315	128.0	128.0	-0.9634007171870134	13.207129026309136	12.243728309122123	499.20182576201273	191.61469061549792	-3.5267175572519083	6.427480916030534	0.6412213740458015	-0.046476761619190406	0.42278860569715143	0.07946026986506746	
1.7089488167677446E12	2.2391304347826084	-6.369565217391304	3.4456521739130435	3948.7179487179483	128.0	128.0	-0.9887154088873159	13.22386124418512	12.235145835297804	499.1974984642862	191.37481407818964	-2.931297709923664	6.5038167938931295	1.099236641221374	-0.05247376311844078	0.43478260869565216	0.08095952023988005	
1.7089488167872764E12	2.25	-6.413043478260869	3.434782608695652	3936.9963369963366	128.0	128.0	-0.9918887605534508	13.221841838579397	12.229953078025947	499.18393959807634	191.58216376092003	-3.2671755725190836	6.412213740458015	1.297709923664122	-0.05697151424287856	0.4287856071964018	0.10194902548725637	
1.7089488168068083E12	2.2065217391304346	-6.4021739130434785	3.4891304347826084	3948.7179487179483	128.0	128.0	-0.9942687743030518	13.232660082895766	12.238391308592714	499.19035842303737	191.27103105438127	-3.2519083969465647	6.702290076335878	1.1755725190839694	-0.037481259370314844	0.42728635682158916	0.08845577211394302	
1.70894881682634E12	2.25	-6.413043478260869	3.4565217391304346	3948.7179487179483	128.0	128.0	-0.9936196796440697	13.220904257405312	12.227284577761242	499.1780977461455	191.2372781321142	-3.3587786259541983	6.6106870229007635	1.0534351145038168	-0.041979010494752625	0.4287856071964018	0.08395802098950525	
1.708948816845872E12	2.260869565217391	-6.423913043478261	3.434782608695652	3947.252747252747	128.0	128.0	-0.800477957782502	13.399333166996618	12.598855209214117	499.1781698677743	191.14424123099343	-3.541984732824427	6.549618320610687	0.9465648854961831	-0.037481259370314844	0.43478260869565216	0.07796101949025487	
1.7089488168654038E12	2.2282608695652173	-6.423913043478261	3.5217391304347827	3948.7179487179483	128.0	128.0	-0.5066544421499303	13.792396043824679	13.285741601674749	499.17672743519876	190.77988276241814	-3.0381679389312977	7.648854961832061	0.8091603053435115	-0.04497751124437781	0.424287856071964	0.0704647676161919	
1.7089488168849358E12	2.282608695652174	-6.391304347826087	3.2282608695652173	3942.8571428571427	128.0	128.0	-0.9530873242720753	13.222779419753484	12.269692095481409	499.1786025975469	190.82957456464464	-3.9083969465648853	2.946564885496183	1.114503816793893	-0.04947526236881559	0.4287856071964018	0.0944527736131934	
1.7089488169044675E12	2.0652173913043477	-6.4021739130434785	3.8369565217391304	3950.18315018315	128.0	128.0	-0.9629679874143586	13.288482223568229	12.32551423615387	499.1884832606892	190.70855447155887	-4.366412213740458	9.16030534351145	0.47328244274809156	-0.046476761619190406	0.42278860569715143	0.08695652173913043	
1.7089488169239995E12	2.217391304347826	-6.445652173913043	3.217391304347826	3948.7179487179483	128.0	128.0	-0.954241270332488	13.264898450958546	12.310657180626057	499.20182576201273	190.66008873702154	-4.412213740458015	5.068702290076335	0.8091603053435115	-0.046476761619190406	0.43628185907046474	0.07646176911544228	
1.7089488169435312E12	2.260869565217391	-6.369565217391304	3.510869565217391	3935.531135531135	128.0	128.0	-0.9602273655208786	13.290068899401296	12.329841533880417	499.19843604546026	190.56532091681015	-1.114503816793893	9.84732824427481	1.1755725190839694	-0.037481259370314844	0.416791604197901	0.08545727136431784	
1.7089488169630632E12	2.2065217391304346	-6.358695652173913	3.3152173913043477	3950.18315018315	128.0	128.0	-0.9706850016933682	13.311705388034033	12.341020386340665	499.18747355788634	190.7603378010199	-2.8854961832061066	6.793893129770992	1.4809160305343512	-0.04047976011994003	0.42728635682158916	0.08845577211394302	
1.708948816982595E12	2.1847826086956523	-6.445652173913043	3.5217391304347827	3948.7179487179483	128.0	128.0	-0.9533758107871785	13.318701186025285	12.365325375238106	499.18040563826634	190.41970734831185	-4.67175572519084	8.458015267175572	1.1755725190839694	-0.038980509745127435	0.44377811094452774	0.10194902548725637	
1.708948817002127E12	2.1956521739130435	-6.467391304347826	3.5217391304347827	3947.252747252747	128.0	128.0	-0.9412593771528456	13.329519430341655	12.388260053188809	499.18379535481876	190.66492088614953	-4.152671755725191	6.076335877862595	1.3740458015267174	-0.05697151424287856	0.41829085457271364	0.08695652173913043	
1.7089488170216587E12	2.217391304347826	-6.456521739130435	3.510869565217391	3948.7179487179483	128.0	128.0	-0.9230126050725705	13.383250043779617	12.460237438707047	499.18336262504613	190.38811807490805	-3.5114503816793894	6.244274809160305	0.9312977099236641	-0.038980509745127435	0.4287856071964018	0.08695652173913043	
1.7089488170411907E12	2.2282608695652173	-6.413043478260869	3.4239130434782608	3944.322344322344	128.0	128.0	-0.8979863998873712	13.415849019986275	12.517862620098905	499.17369832679015	190.60455508286418	-3.145038167938931	6.213740458015267	0.5801526717557252	-0.034482758620689655	0.44377811094452774	0.08695652173913043	
1.7089488170607224E12	2.2391304347826084	-6.413043478260869	3.4130434782608696	3948.7179487179483	128.0	128.0	-0.8587522338333409	13.485662756641242	12.6269105228079	499.18213655735696	190.30864003999713	-2.8854961832061066	6.824427480916031	0.7786259541984732	-0.046476761619190406	0.4287856071964018	0.08695652173913043	
1.7089488170802544E12	2.217391304347826	-6.4021739130434785	3.4239130434782608	3950.18315018315	128.0	128.0	-0.8198065542944138	13.518045367961571	12.698238813667157	499.1809104896677	190.52147096651447	-2.916030534351145	6.625954198473282	0.7022900763358778	-0.038980509745127435	0.4257871064467766	0.08995502248875561	
1.7089488170997861E12	2.1956521739130435	-6.4021739130434785	3.4456521739130435	3935.531135531135	128.0	128.0	-0.8116568102427495	13.523815098263633	12.712158288020884	499.19194509887046	190.7164878507242	-3.3740458015267176	6.534351145038167	0.8396946564885496	-0.031484257871064465	0.4287856071964018	0.08995502248875561	
1.708948817119318E12	2.1847826086956523	-6.4021739130434785	3.434782608695652	3950.18315018315	128.0	128.0	-0.8594734501210989	13.472320255317719	12.61284680519662	499.19223358538557	190.45980697391118	-3.3740458015267176	6.687022900763359	0.7480916030534351	-0.038980509745127435	0.41529235382308843	0.08995502248875561	
1.7089488171388499E12	2.217391304347826	-6.413043478260869	3.4782608695652173	3950.18315018315	128.0	128.0	-0.921498050868279	13.40135257260234	12.479854521734062	499.1876178011439	190.6706906164516	-3.145038167938931	7.145038167938931	0.8091603053435115	-0.05997001499250375	0.424287856071964	0.08845577211394302	
1.7089488171583818E12	2.2282608695652173	-6.434782608695652	3.467391304347826	3948.7179487179483	128.0	128.0	-0.964915271391305	13.313436307124652	12.348521035733347	499.1840117197051	190.46427851489528	-2.9770992366412212	6.549618320610687	0.8091603053435115	-0.046476761619190406	0.41529235382308843	0.10494752623688156	
1.7089488171779136E12	2.2065217391304346	-6.413043478260869	3.467391304347826	3950.18315018315	128.0	128.0	-0.9696031772617314	13.293674980840086	12.324071803578354	499.1840117197051	190.65965600724888	-2.6412213740458013	6.778625954198473	0.6870229007633587	-0.047976011994003	0.43478260869565216	0.095952023988006	
1.7089488171974456E12	2.1956521739130435	-6.445652173913043	3.3478260869565215	3945.7875457875457	128.0	128.0	-0.9838111381305622	13.281991276978408	12.298180138847846	499.2003833294372	190.44170444508845	-2.854961832061069	6.8396946564885495	0.48854961832061067	-0.04497751124437781	0.42728635682158916	0.07796101949025487	
1.7089488172169773E12	2.2391304347826084	-6.380434782608695	3.467391304347826	3948.7179487179483	128.0	128.0	-0.9719110693825567	13.280620966031668	12.30870989664911	499.18336262504613	190.63571162649532	-1.9541984732824427	6.809160305343511	0.7022900763358778	-0.038980509745127435	0.4332833583208396	0.07646176911544228	
1.7089488172365093E12	2.1956521739130435	-6.358695652173913	3.467391304347826	3948.7179487179483	128.0	128.0	-0.9705407584358167	13.294684683642947	12.32414392520713	499.2006718159523	190.39576296755828	-1.6793893129770991	6.244274809160305	0.5954198473282443	-0.038980509745127435	0.41829085457271364	0.08395802098950525	
1.708948817256041E12	2.2282608695652173	-6.423913043478261	3.4782608695652173	3935.531135531135	128.0	128.0	-0.9647710281337534	13.29821864345296	12.333447615319207	499.21249976307155	190.60491569100807	-3.9083969465648853	7.267175572519084	0.3511450381679389	-0.04497751124437781	0.43478260869565216	0.08845577211394302	
1.708948817275573E12	2.260869565217391	-6.423913043478261	3.4565217391304346	3950.18315018315	128.0	128.0	-0.9608764601798607	13.292593156408449	12.331716696228588	499.2061530597393	190.51166242500096	-2.763358778625954	6.351145038167939	0.41221374045801523	-0.047976011994003	0.4422788605697151	0.08845577211394302	
1.7089488172951047E12	2.2282608695652173	-6.391304347826087	3.4891304347826084	3948.7179487179483	128.0	128.0	-0.9609485818086365	13.300815022088889	12.339866440280252	499.18653597671226	190.58529860798106	-2.8702290076335877	6.793893129770992	0.6106870229007634	-0.05247376311844078	0.424287856071964	0.09295352323838081	
1.7089488173146367E12	2.2065217391304346	-6.391304347826087	3.4891304347826084	3948.7179487179483	128.0	128.0	-0.9586406896878111	13.301103508603992	12.34246281891618	499.19901301849046	190.5142588036369	-2.916030534351145	7.038167938931298	0.5038167938931297	-0.04047976011994003	0.43178410794602695	0.08845577211394302	
1.7089488173341685E12	2.217391304347826	-6.391304347826087	3.4782608695652173	3950.18315018315	128.0	128.0	-0.9616697980963944	13.293674980840086	12.332005182743691	499.1962002749682	190.57152337688487	-2.946564885496183	7.343511450381679	0.5343511450381679	-0.037481259370314844	0.43478260869565216	0.08845577211394302	
1.7089488173537004E12	2.2065217391304346	-6.391304347826087	3.510869565217391	3922.344322344322	128.0	128.0	-0.9949899905908097	13.34617952658886	12.351189535998051	499.19641663985453	190.4889441119366	-2.7022900763358777	7.9541984732824424	0.7633587786259541	-0.04047976011994003	0.41379310344827586	0.08845577211394302	
1.7089488173732322E12	2.2391304347826084	-6.413043478260869	3.4782608695652173	3948.7179487179483	128.0	128.0	-1.0195113443745787	13.353103202951337	12.333591858576758	499.1941087477337	190.53827530601924	-2.5801526717557253	6.916030534351145	0.6717557251908397	-0.038980509745127435	0.4257871064467766	0.08995502248875561	
1.7089488173927642E12	2.2065217391304346	-6.391304347826087	3.4782608695652173	3948.7179487179483	128.0	128.0	-1.0257138044492966	13.360026879313812	12.334313074864516	499.192089342128	190.45064752705665	-2.3206106870229006	7.343511450381679	0.916030534351145	-0.05397301349325337	0.4257871064467766	0.08995502248875561	
1.708948817412296E12	2.2282608695652173	-6.391304347826087	3.4565217391304346	3934.065934065934	128.0	128.0	-1.0353781027052527	13.369691177569768	12.334313074864516	499.1942529909913	190.1588434170298	-2.8091603053435112	6.625954198473282	0.9770992366412213	-0.05397301349325337	0.4332833583208396	0.08995502248875561	
1.708948817431828E12	2.2065217391304346	-6.4021739130434785	3.4782608695652173	3948.7179487179483	128.0	128.0	-1.0098470461186226	13.340409796286798	12.330562750168175	499.1968493696272	190.41199033403282	-3.1908396946564883	6.8396946564885495	0.8549618320610687	-0.047976011994003	0.42728635682158916	0.08845577211394302	
1.7089488174513596E12	2.260869565217391	-6.434782608695652	3.4456521739130435	3950.18315018315	128.0	128.0	-0.9891481386599706	13.327427903107155	12.338279764447185	499.1941087477337	190.13021113040583	-3.3435114503816794	7.2824427480916025	0.8549618320610687	-0.03298350824587706	0.424287856071964	0.095952023988006	
1.7089488174708916E12	2.260869565217391	-6.434782608695652	3.4565217391304346	3948.7179487179483	128.0	128.0	-0.964194055103547	13.297930156937857	12.33373610183431	499.17824198940303	190.4100430500559	-3.4198473282442747	7.1603053435114505	0.7938931297709924	-0.026986506746626684	0.4332833583208396	0.08395802098950525	
1.7089488174904233E12	2.2282608695652173	-6.434782608695652	3.467391304347826	3948.7179487179483	128.0	128.0	-0.9613091899525155	13.310262955458517	12.348953765506002	499.19035842303737	190.12292684589946	-3.1755725190839694	6.65648854961832	0.6564885496183206	-0.038980509745127435	0.42278860569715143	0.09745127436281859	
1.7089488175099553E12	2.1956521739130435	-6.391304347826087	3.5	3923.8095238095234	128.0	128.0	-0.9357781333658854	13.332476417121462	12.396698283755576	499.18184807084185	190.40622060373076	-3.4045801526717554	6.595419847328244	0.6106870229007634	-0.037481259370314844	0.43478260869565216	0.08095952023988005	
1.708948817529487E12	2.2065217391304346	-6.369565217391304	3.4565217391304346	3950.18315018315	128.0	128.0	-0.9086604009461882	13.325408497501433	12.416748096555246	499.1971378561423	190.12689353548214	-3.236641221374046	6.870229007633587	0.5343511450381679	-0.04947526236881559	0.41829085457271364	0.0944527736131934	
1.708948817549019E12	2.217391304347826	-6.413043478260869	3.467391304347826	3950.18315018315	128.0	128.0	-0.9000058054930933	13.332404295492685	12.432398489999592	499.1977148291725	189.95733558623024	-3.129770992366412	6.748091603053435	0.6412213740458015	-0.05247376311844078	0.4422788605697151	0.08845577211394302	
1.7089488175685508E12	2.217391304347826	-6.434782608695652	3.510869565217391	3934.065934065934	128.0	128.0	-0.9170986315129557	13.340049188142919	12.422950556629964	499.19930150500556	190.1213401700664	-3.6488549618320607	6.061068702290076	0.9312977099236641	-0.05247376311844078	0.43478260869565216	0.095952023988006	
1.7089488175880828E12	2.2391304347826084	-6.434782608695652	3.4565217391304346	3951.6483516483513	128.0	128.0	-0.9441442423038772	13.292809521294776	12.348665278990898	499.22201981806995	189.9765199394846	-3.5267175572519083	5.938931297709924	0.6717557251908397	-0.05547226386806597	0.43478260869565216	0.08545727136431784	
1.7089488176076145E12	2.2717391304347827	-6.434782608695652	3.467391304347826	3951.6483516483513	128.0	128.0	-0.9818638541536158	13.315599955987926	12.33373610183431	499.21776464197217	190.13778390142727	-3.1908396946564883	5.862595419847328	0.2595419847328244	-0.034482758620689655	0.4407796101949025	0.07946026986506746	
1.7089488176271465E12	2.25	-6.445652173913043	3.4891304347826084	3948.7179487179483	128.0	128.0	-1.0040773158165595	13.316609658790787	12.312532342974228	499.2083167086025	189.99007880569445	-3.2213740458015265	5.480916030534351	0.6106870229007634	-0.04947526236881559	0.4332833583208396	0.0944527736131934	
1.7089488176466782E12	2.2065217391304346	-6.434782608695652	3.510869565217391	3950.18315018315	128.0	128.0	-1.0107125056639321	13.34242920189252	12.331716696228588	499.20853307348887	190.16576709339228	-2.595419847328244	5.755725190839694	1.1450381679389312	-0.037481259370314844	0.43178410794602695	0.08845577211394302	
1.7089488176662102E12	2.217391304347826	-6.434782608695652	3.4130434782608696	3923.8095238095234	128.0	128.0	-1.01691496573865	13.320432105115904	12.303517139377254	499.1989408968617	190.04215062167057	-2.564885496183206	5.694656488549618	0.7175572519083969	-0.04047976011994003	0.416791604197901	0.07796101949025487	
1.708948817685742E12	2.2717391304347827	-6.4021739130434785	3.510869565217391	3948.7179487179483	128.0	128.0	-0.6736881343946618	13.659475881990895	12.985787747596234	499.2163943310254	190.12350381892966	-2.259541984732824	6.229007633587786	0.8854961832061068	-0.05547226386806597	0.4197901049475262	0.08095952023988005	
1.708948817705274E12	2.293478260869565	-6.380434782608695	3.4782608695652173	3948.7179487179483	128.0	128.0	-0.6462097938310855	13.703181589029025	13.05697179519794	499.2121391549277	189.85016284586942	-2.396946564885496	7.145038167938931	0.732824427480916	-0.04047976011994003	0.424287856071964	0.09295352323838081	
1.7089488177248057E12	2.3152173913043477	-6.380434782608695	3.2717391304347827	3931.135531135531	128.0	128.0	-1.0081882486567795	13.328149119394913	12.319960870738134	499.20918216814783	190.2408457089479	-1.9389312977099236	3.6488549618320607	0.8396946564885496	-0.046476761619190406	0.4257871064467766	0.07646176911544228	
1.7089488177443376E12	2.0760869565217392	-6.391304347826087	3.8260869565217392	3950.18315018315	128.0	128.0	-1.0146070736178248	13.408348370593593	12.393741296975769	499.206874276027	190.12689353548214	-2.549618320610687	8.030534351145038	0.366412213740458	-0.038980509745127435	0.4287856071964018	0.08395802098950525	
1.7089488177638694E12	2.2391304347826084	-6.423913043478261	3.2391304347826084	3950.18315018315	128.0	128.0	-1.0217471148666282	13.391688274346384	12.369941159479756	499.215240384965	190.3274637851076	-3.2213740458015265	4.763358778625954	0.6106870229007634	-0.04047976011994003	0.424287856071964	0.08545727136431784	
1.7089488177834014E12	2.2282608695652173	-6.380434782608695	3.619565217391304	3948.7179487179483	128.0	128.0	-1.0163379927084437	13.407410789419508	12.391072796711065	499.22923198094753	190.188052676684	0.24427480916030533	10.122137404580153	1.0076335877862594	-0.046476761619190406	0.43628185907046474	0.07946026986506746	
1.708948817802933E12	2.217391304347826	-6.358695652173913	3.3152173913043477	3950.18315018315	128.0	128.0	-1.00458216721799	13.400054383284377	12.395472216066388	499.21062460072335	190.34037355665848	-0.2595419847328244	6.687022900763359	1.5725190839694656	-0.04047976011994003	0.4422788605697151	0.08095952023988005	
1.708948817822465E12	2.1630434782608696	-6.434782608695652	3.6304347826086953	3923.8095238095234	128.0	128.0	-0.985253570706078	13.408420492222369	12.423166921516291	499.1881226525453	190.19468786653138	-2.381679389312977	8.625954198473282	1.450381679389313	-0.034482758620689655	0.4332833583208396	0.08695652173913043	
1.7089488178419968E12	2.25	-6.489130434782608	3.5760869565217392	3948.7179487179483	128.0	128.0	-0.9609485818086365	13.406473208245423	12.445524626436786	499.20240273504294	190.369799181199	-2.4885496183206106	5.251908396946565	1.2213740458015268	-0.038980509745127435	0.4287856071964018	0.08695652173913043	
1.7089488178615288E12	2.2717391304347827	-6.467391304347826	3.5652173913043477	3950.18315018315	128.0	128.0	-0.9352011603356791	13.412531425062589	12.477330264726909	499.2048548704213	190.68251856357082	-0.7175572519083969	5.312977099236641	0.6412213740458015	-0.03298350824587706	0.42728635682158916	0.08845577211394302	
1.7089488178810605E12	2.2282608695652173	-6.4021739130434785	3.4565217391304346	3932.6007326007325	128.0	128.0	-0.9016646029549364	13.463521416607072	12.561856813652136	499.1882668958029	190.45980697391118	-0.21374045801526717	5.251908396946565	0.5038167938931297	-0.04047976011994003	0.4197901049475262	0.08545727136431784	
1.7089488179005925E12	2.2282608695652173	-6.358695652173913	3.5	3950.18315018315	128.0	128.0	-0.8592570852347715	13.504558623380499	12.645301538145727	499.1989408968617	190.7385570691296	-0.1984732824427481	6.351145038167939	0.8549618320610687	-0.026986506746626684	0.4332833583208396	0.07946026986506746	
1.7089488179201243E12	2.2391304347826084	-6.3478260869565215	3.5217391304347827	3948.7179487179483	128.0	128.0	-0.8260811359979077	13.554683155379672	12.728602019381764	499.19389238284737	190.49442535572356	-1.0076335877862594	6.351145038167939	0.549618320610687	-0.038980509745127435	0.4257871064467766	0.07346326836581708	
1.7089488179396562E12	2.217391304347826	-6.380434782608695	3.4782608695652173	3947.252747252747	128.0	128.0	-0.8299035823230246	13.57732934681527	12.747425764492245	499.18992569326474	190.7957495207488	-2.0610687022900764	5.801526717557252	1.0076335877862594	-0.034482758620689655	0.4482758620689655	0.08395802098950525	
1.708948817959188E12	2.2391304347826084	-6.4021739130434785	3.5	3950.18315018315	128.0	128.0	-0.8964718456830795	13.510039867167457	12.613568021484378	499.1897093283784	190.57549006646755	-2.396946564885496	6.259541984732824	0.8396946564885496	-0.05397301349325337	0.41529235382308843	0.0944527736131934	
1.70894881797872E12	2.217391304347826	-6.423913043478261	3.5543478260869565	3922.344322344322	128.0	128.0	-0.955611581279228	13.422772696348751	12.467161115069523	499.1942529909913	190.88820944883938	-2.229007633587786	6.427480916030534	0.9618320610687022	-0.04497751124437781	0.4197901049475262	0.08095952023988005	
1.7089488179982517E12	2.260869565217391	-6.423913043478261	3.5760869565217392	3922.344322344322	128.0	128.0	-0.964915271391305	13.336010376931474	12.371095105540169	499.18653597671226	190.9798760390134	-1.4351145038167938	6.030534351145038	0.7938931297709924	-0.046476761619190406	0.4407796101949025	0.08995502248875561	
1.7089488180177837E12	2.2282608695652173	-6.413043478260869	3.5869565217391304	3948.7179487179483	128.0	128.0	-0.9421969583269308	13.269081505427542	12.32688454710061	499.18992569326474	190.96083592901658	-1.6946564885496183	6.229007633587786	0.6106870229007634	-0.031484257871064465	0.4482758620689655	0.08695652173913043	
1.7089488180373154E12	2.217391304347826	-6.423913043478261	3.467391304347826	3931.135531135531	128.0	128.0	-0.9485436616592005	13.249103814256648	12.300560152597447	499.1854541522806	191.0722638454752	-1.5877862595419847	6.595419847328244	0.5801526717557252	-0.05397301349325337	0.4257871064467766	0.07946026986506746	
1.7089488180568474E12	2.2282608695652173	-6.413043478260869	3.5760869565217392	3950.18315018315	128.0	128.0	-0.9279168758293243	13.226457622821048	12.298540746991725	499.20052757269474	191.02343750279397	-0.6412213740458015	6.259541984732824	0.549618320610687	-0.03298350824587706	0.43478260869565216	0.0704647676161919	
1.7089488180763792E12	2.1956521739130435	-6.326086956521739	3.608695652173913	3948.7179487179483	128.0	128.0	-0.9346241873054728	13.228765514941873	12.294141327636401	499.18653597671226	191.1312593378138	0.2900763358778626	6.5038167938931295	0.7786259541984732	-0.037481259370314844	0.43178410794602695	0.08845577211394302	
1.7089488180959111E12	2.2065217391304346	-6.413043478260869	3.619565217391304	3947.252747252747	128.0	128.0	-0.930080524692598	13.225375798389411	12.295295273696814	499.192089342128	191.09368396922162	-2.8396946564885495	8.381679389312977	0.6717557251908397	-0.047976011994003	0.42728635682158916	0.08095952023988005	
1.7089488181154429E12	2.260869565217391	-6.391304347826087	3.532608695652174	3947.252747252747	128.0	128.0	-0.9225798752999158	13.223717000927568	12.301137125627653	499.1972099777711	191.21008827806574	-2.3053435114503817	7.1603053435114505	0.9007633587786259	-0.038980509745127435	0.41829085457271364	0.08695652173913043	
1.7089488181349749E12	2.25	-6.413043478260869	3.641304347826087	3925.274725274725	128.0	128.0	-0.9235895781027769	13.236626772478434	12.313037194375658	499.1894208418633	191.16616620614127	-2.8091603053435112	7.587786259541985	0.9618320610687022	-0.04497751124437781	0.42728635682158916	0.08095952023988005	
1.7089488181545066E12	2.2065217391304346	-6.478260869565217	3.5652173913043477	3948.7179487179483	128.0	128.0	-0.9046937113635196	13.219317581572245	12.314623870208726	499.1863196118259	191.29504755676362	-3.2671755725190836	7.297709923664121	0.7175572519083969	-0.034482758620689655	0.43628185907046474	0.10194902548725637	
1.7089488181740386E12	2.1630434782608696	-6.434782608695652	3.5869565217391304	3948.7179487179483	128.0	128.0	-0.9069294818555692	13.208932067028531	12.302002585172962	499.18365111156123	191.10096825372796	-2.1374045801526718	6.824427480916031	0.7480916030534351	-0.0239880059970015	0.43628185907046474	0.07646176911544228	
1.7089488181935703E12	2.2065217391304346	-6.369565217391304	3.608695652173913	3929.6703296703295	128.0	128.0	-0.8909906018961194	13.176116725935547	12.285126124039428	499.20442214064866	191.36111096872224	-1.7862595419847327	7.145038167938931	1.0687022900763359	-0.047976011994003	0.424287856071964	0.07796101949025487	
1.7089488182131023E12	2.217391304347826	-6.358695652173913	3.5652173913043477	3950.18315018315	128.0	128.0	-0.902169454356367	13.188377402827431	12.286207948471064	499.21192279004134	191.1586655567486	-2.183206106870229	6.824427480916031	0.9465648854961831	-0.038980509745127435	0.41529235382308843	0.07646176911544228	
1.708948818232634E12	2.260869565217391	-6.3478260869565215	3.543478260869565	3950.18315018315	128.0	128.0	-0.9037561301894343	13.170707603777362	12.266951473587929	499.2074512490572	191.39443116121666	-1.984732824427481	6.687022900763359	0.9618320610687022	-0.05547226386806597	0.4197901049475262	0.08095952023988005	
1.708948818252166E12	2.25	-6.380434782608695	3.5543478260869565	3947.252747252747	128.0	128.0	-0.9000058054930933	13.170491238891035	12.270485433397942	499.19605603171067	191.1979718444314	-1.5877862595419847	6.641221374045801	0.9770992366412213	-0.038980509745127435	0.43628185907046474	0.08995502248875561	
1.7089488182716978E12	2.2282608695652173	-6.413043478260869	3.5869565217391304	3948.7179487179483	128.0	128.0	-0.9207047129517452	13.191694997751117	12.270990284799373	499.19519057216536	191.4449163013597	-2.0763358778625953	6.778625954198473	0.7022900763358778	-0.041979010494752625	0.43628185907046474	0.08695652173913043	
1.7089488182912297E12	2.2391304347826084	-6.4021739130434785	3.543478260869565	3947.252747252747	128.0	128.0	-0.9193344020050052	13.177991888283717	12.258657486278713	499.2132209793593	191.2733389465021	-1.816793893129771	6.687022900763359	1.0381679389312977	-0.029985007496251874	0.4452773613193403	0.08545727136431784	
1.7089488183107615E12	2.1847826086956523	-6.369565217391304	3.5760869565217392	3948.7179487179483	128.0	128.0	-0.9172428747705073	13.166668792565916	12.24942591779541	499.2065857895119	191.06223893907537	-1.2366412213740459	6.870229007633587	0.9312977099236641	-0.04497751124437781	0.42728635682158916	0.09295352323838081	
1.7089488183302935E12	2.217391304347826	-6.358695652173913	3.619565217391304	3948.7179487179483	128.0	128.0	-0.8826966145869035	13.156571764537308	12.273875149950404	499.20312395133067	191.4753516287031	-1.9541984732824427	6.412213740458015	1.2061068702290076	-0.047976011994003	0.43178410794602695	0.06746626686656672	
1.7089488183498252E12	2.25	-6.369565217391304	3.608695652173913	3929.6703296703295	128.0	128.0	-0.8688492618619517	13.17828037479882	12.309431112936869	499.21098520886727	191.29310027278666	-2.595419847328244	6.671755725190839	1.1755725190839694	-0.03298350824587706	0.4452773613193403	0.08845577211394302	
1.7089488183693572E12	2.260869565217391	-6.391304347826087	3.619565217391304	3951.6483516483513	128.0	128.0	-0.8653874236807136	13.192127727523772	12.326740303843058	499.1955511803092	191.65839632253605	-2.916030534351145	6.99236641221374	1.2366412213740459	-0.038980509745127435	0.4287856071964018	0.08695652173913043	
1.708948818388889E12	2.2391304347826084	-6.4021739130434785	3.641304347826087	3948.7179487179483	128.0	128.0	-0.8693541132633822	13.198979282257472	12.32962516899409	499.19930150500556	191.45054178840422	-2.931297709923664	6.748091603053435	1.129770992366412	-0.041979010494752625	0.4407796101949025	0.09745127436281859	
1.708948818408421E12	2.2391304347826084	-6.423913043478261	3.641304347826087	3948.7179487179483	128.0	128.0	-0.8872402771997783	13.131761924238434	12.244521647038656	499.1935317747035	191.82023725750892	-2.6564885496183206	7.450381679389313	1.0381679389312977	-0.04497751124437781	0.43178410794602695	0.08845577211394302	
1.7089488184279526E12	2.2391304347826084	-6.369565217391304	3.6739130434782608	3950.18315018315	128.0	128.0	-0.9025300625002459	13.132050410753537	12.229520348253292	499.19317116655964	191.59601111364498	-2.4580152671755724	6.625954198473282	0.9312977099236641	-0.03298350824587706	0.4422788605697151	0.08095952023988005	
1.7089488184474846E12	2.25	-6.4021739130434785	3.641304347826087	3948.7179487179483	128.0	128.0	-0.9000058054930933	13.128804937458627	12.228799131965534	499.20312395133067	191.64793868636355	-2.519083969465649	6.595419847328244	1.0381679389312977	-0.037481259370314844	0.43478260869565216	0.07496251874062969	
1.7089488184670164E12	2.217391304347826	-6.33695652173913	3.5869565217391304	3950.18315018315	128.0	128.0	-0.9026743057577975	13.100389015720966	12.197714709963169	499.2075954923148	191.72359427494936	-2.198473282442748	6.763358778625954	0.9618320610687022	-0.04047976011994003	0.424287856071964	0.08095952023988005	
1.7089488184865483E12	2.25	-6.358695652173913	3.652173913043478	3948.7179487179483	128.0	128.0	-0.8902693856083616	13.116688503824294	12.226419118215933	499.2006718159523	191.7719878878579	-1.8931297709923662	6.366412213740458	1.0229007633587786	-0.04497751124437781	0.4197901049475262	0.08845577211394302	
1.70894881850608E12	2.2391304347826084	-6.358695652173913	3.652173913043478	3928.205128205128	128.0	128.0	-0.8202392840670687	13.132915870298849	12.31267658623178	499.20867731674645	191.86423145106215	-2.6717557251908395	6.885496183206107	0.6259541984732824	-0.047976011994003	0.43928035982008995	0.08545727136431784	
1.708948818525612E12	2.25	-6.391304347826087	3.684782608695652	3950.18315018315	128.0	128.0	-0.4659057218916085	13.821965911622753	13.356060189731144	499.2013209106113	191.64966960545416	-2.687022900763359	6.916030534351145	0.9465648854961831	-0.03298350824587706	0.42728635682158916	0.08545727136431784	
1.7089488185451438E12	2.260869565217391	-6.369565217391304	3.5	3948.7179487179483	128.0	128.0	-0.8813984252689392	13.115823044278985	12.234424619010046	499.2037730459897	191.90000377893494	-3.0839694656488548	5.923664122137405	0.9007633587786259	-0.04047976011994003	0.42728635682158916	0.07796101949025487	
1.7089488185646758E12	2.130434782608696	-6.3478260869565215	3.641304347826087	3948.7179487179483	128.0	128.0	-0.8426691106163395	13.132627383783746	12.289958273167406	499.19079115281005	191.97039448862012	-4.427480916030534	3.2671755725190836	0.7633587786259541	-0.047976011994003	0.43178410794602695	0.07796101949025487	
1.7089488185842075E12	2.130434782608696	-6.33695652173913	3.652173913043478	3948.7179487179483	128.0	128.0	-0.8562279768261882	13.14265229018358	12.286424313357392	499.20146515386887	192.26587680171454	-2.595419847328244	10.244274809160306	0.8091603053435115	-0.037481259370314844	0.43478260869565216	0.095952023988006	
1.7089488186037395E12	2.2717391304347827	-6.369565217391304	3.4130434782608696	3923.8095238095234	128.0	128.0	-0.8320672311862983	13.117914571513484	12.285847340327186	499.1932432881884	192.03826094129812	-4.549618320610687	5.236641221374046	0.9007633587786259	-0.034482758620689655	0.4482758620689655	0.08695652173913043	
1.7089488186232712E12	2.1956521739130435	-6.33695652173913	3.760869565217391	3920.879120879121	128.0	128.0	-0.8289660011489394	13.135151640790898	12.306185639641958	499.1971378561423	192.3347529571954	-2.549618320610687	10.259541984732824	1.4045801526717556	-0.034482758620689655	0.4257871064467766	0.0944527736131934	
1.7089488186428032E12	2.260869565217391	-6.413043478260869	3.5217391304347827	3948.7179487179483	128.0	128.0	-0.8158398647117454	13.158735413400581	12.342895548688835	499.2027633431868	192.1607955885882	-3.877862595419847	4.900763358778626	1.450381679389313	-0.034482758620689655	0.43628185907046474	0.07646176911544228	
1.708948818662335E12	2.1847826086956523	-6.467391304347826	3.6630434782608696	3926.7399267399264	128.0	128.0	-0.8198065542944138	13.158663291771806	12.338856737477391	499.2013209106113	192.5089988123177	-5.267175572519084	6.7328244274809155	1.0534351145038168	-0.03298350824587706	0.4197901049475262	0.08845577211394302	
1.708948818681867E12	2.1956521739130435	-6.445652173913043	3.5760869565217392	3950.18315018315	128.0	128.0	-0.7792020772936437	13.185636780933951	12.406434703640308	499.19403662610495	192.31614557697125	-3.8931297709923665	3.618320610687023	0.7633587786259541	-0.029985007496251874	0.43178410794602695	0.09295352323838081	
1.7089488187013987E12	2.1739130434782608	-6.304347826086956	3.619565217391304	3948.7179487179483	128.0	128.0	-0.7636959271068486	13.196382903621544	12.432686976514695	499.1948299640215	192.68360527558391	-1.5419847328244274	6.259541984732824	0.549618320610687	-0.06146926536731634	0.4257871064467766	0.07346326836581708	
1.7089488187209307E12	2.2065217391304346	-6.293478260869565	3.532608695652174	3947.252747252747	128.0	128.0	-0.711551989501952	13.262806923724048	12.551254934222095	499.19216146375675	192.49017506720725	-2.916030534351145	6.351145038167939	0.916030534351145	-0.037481259370314844	0.42728635682158916	0.08095952023988005	
1.7089488187404624E12	2.25	-6.304347826086956	3.532608695652174	3950.18315018315	128.0	128.0	-0.6837130407944967	13.276654276448998	12.592941235654502	499.18235292224324	192.78443131261247	-3.5572519083969465	7.450381679389313	1.297709923664122	-0.04047976011994003	0.43478260869565216	0.0704647676161919	
1.7089488187599944E12	2.2391304347826084	-6.3478260869565215	3.5217391304347827	3923.8095238095234	128.0	128.0	-0.6620044305329836	13.317114510192217	12.655110079659234	499.18711294974247	192.97223603394463	-4.67175572519084	7.099236641221374	1.1755725190839694	-0.041979010494752625	0.42278860569715143	0.07346326836581708	
1.7089488187795261E12	2.217391304347826	-6.4021739130434785	3.641304347826087	3950.18315018315	128.0	128.0	-0.7045561915107003	13.281702790463305	12.577146598952604	499.1855983955382	192.78262827189306	-3.969465648854962	6.885496183206107	1.297709923664122	-0.034482758620689655	0.4332833583208396	0.08995502248875561	
1.708948818799058E12	2.217391304347826	-6.434782608695652	3.6304347826086953	3948.7179487179483	128.0	128.0	-0.7844669561942764	13.238357691569053	12.453890735374777	499.1920172204992	192.98492944060916	-2.763358778625954	6.412213740458015	1.0534351145038168	-0.04497751124437781	0.424287856071964	0.08545727136431784	
1.7089488188185898E12	2.217391304347826	-6.413043478260869	3.619565217391304	3928.205128205128	128.0	128.0	-0.844616394593286	13.17553975290534	12.330923358312054	499.19129600421144	192.7687809191681	-1.4045801526717556	6.381679389312977	0.7938931297709924	-0.038980509745127435	0.44377811094452774	0.07346326836581708	
1.7089488188381218E12	2.217391304347826	-6.391304347826087	3.5869565217391304	3950.18315018315	128.0	128.0	-0.8587522338333409	13.136089221964983	12.277336988131642	499.19389238284737	192.98543429201058	-1.099236641221374	6.534351145038167	0.7786259541984732	-0.037481259370314844	0.4422788605697151	0.08545727136431784	
1.7089488188576536E12	2.25	-6.380434782608695	3.608695652173913	3950.18315018315	128.0	128.0	-0.8570934363714977	13.104860556705065	12.247767120333567	499.1679285964881	192.727960077281	-2.0610687022900764	5.862595419847328	0.8244274809160305	-0.046476761619190406	0.4257871064467766	0.07646176911544228	
1.7089488188771855E12	2.217391304347826	-6.326086956521739	3.5869565217391304	3947.252747252747	128.0	128.0	-0.8668298562562295	13.1238285450731	12.25699868881687	499.17016436698015	192.94569527455513	-0.015267175572519083	8.51908396946565	0.8854961832061068	-0.047976011994003	0.43178410794602695	0.08095952023988005	
1.7089488188967173E12	2.1630434782608696	-6.358695652173913	3.652173913043478	3948.7179487179483	128.0	128.0	-0.873176559588499	13.139839546661324	12.266662987072825	499.1630243257313	192.82568488427222	-1.8015267175572518	6.2748091603053435	0.7938931297709924	-0.047976011994003	0.424287856071964	0.09295352323838081	
1.7089488189162493E12	2.1956521739130435	-6.391304347826087	3.641304347826087	3948.7179487179483	128.0	128.0	-0.8753402084517728	13.13168980260966	12.256349594157887	499.15725459542927	192.98723733273	-2.7022900763358777	8.076335877862595	1.083969465648855	-0.046476761619190406	0.43628185907046474	0.07646176911544228	
1.708948818935781E12	2.217391304347826	-6.391304347826087	3.7065217391304346	3948.7179487179483	128.0	128.0	-0.8619255854994757	13.117626084998381	12.255700499498905	499.16778435323056	192.9207411909987	-2.381679389312977	7.770992366412213	0.8549618320610687	-0.04047976011994003	0.424287856071964	0.0704647676161919	
1.708948818955313E12	2.217391304347826	-6.413043478260869	3.684782608695652	3948.7179487179483	128.0	128.0	-0.8746911137927907	13.14452745253175	12.26983633873896	499.1923057070143	193.034837607722	-2.6259541984732824	7.007633587786259	0.732824427480916	-0.037481259370314844	0.424287856071964	0.07796101949025487	
1.7089488189748447E12	2.1956521739130435	-6.4021739130434785	3.6630434782608696	3926.7399267399264	128.0	128.0	-0.8749796003078939	13.155778426620774	12.28079882631288	499.1804777598951	192.9595426272801	-2.5801526717557253	8.305343511450381	0.5343511450381679	-0.031484257871064465	0.4332833583208396	0.08695652173913043	
1.7089488189943767E12	2.2065217391304346	-6.380434782608695	3.684782608695652	3950.18315018315	128.0	128.0	-0.8826244929581277	13.158663291771806	12.276038798813678	499.1739146916765	193.03353941840405	-3.297709923664122	8.595419847328245	0.183206106870229	-0.037481259370314844	0.43178410794602695	0.08845577211394302	
1.7089488190139084E12	2.2065217391304346	-6.358695652173913	3.5760869565217392	3950.18315018315	128.0	128.0	-0.8877451286012088	13.163423319271008	12.2756781906698	499.19021417977984	192.95160924811475	-3.480916030534351	8.122137404580153	0.6259541984732824	-0.04047976011994003	0.4197901049475262	0.07796101949025487	
1.7089488190334404E12	2.1847826086956523	-6.358695652173913	3.641304347826087	3948.7179487179483	128.0	128.0	-0.8813263036401634	13.146402614879921	12.265076311239758	499.175357124252	192.66110332740587	-3.969465648854962	7.32824427480916	0.7175572519083969	-0.047976011994003	0.43478260869565216	0.07496251874062969	
1.7089488190529722E12	2.2065217391304346	-6.358695652173913	3.6630434782608696	3948.7179487179483	128.0	128.0	-0.898058521516147	13.168471833285313	12.270413311769166	499.17254438072973	192.94987832902413	-4.091603053435114	7.969465648854961	0.7786259541984732	-0.038980509745127435	0.4287856071964018	0.10194902548725637	
1.7089488190725042E12	2.217391304347826	-6.4021739130434785	3.608695652173913	3926.7399267399264	128.0	128.0	-0.903539765303107	13.17279913101186	12.269259365708754	499.17283286724484	192.66088696251953	-4.473282442748092	7.0534351145038165	1.0381679389312977	-0.037481259370314844	0.4197901049475262	0.07496251874062969	
1.708948819092036E12	2.25	-6.423913043478261	3.652173913043478	3948.7179487179483	128.0	128.0	-0.8968324538269584	13.15448023730281	12.257647783475852	499.2244719534483	192.96560084409725	-4.351145038167939	6.99236641221374	0.8396946564885496	-0.04047976011994003	0.4452773613193403	0.07796101949025487	
1.7089488191115679E12	2.2282608695652173	-6.413043478260869	3.5978260869565215	3950.18315018315	128.0	128.0	-0.8904857504946889	13.152172345181985	12.261686594687296	499.2137258307607	192.66521426024607	-3.633587786259542	7.068702290076335	0.6259541984732824	-0.034482758620689655	0.4332833583208396	0.07646176911544228	
1.7089488191310996E12	2.2282608695652173	-6.4021739130434785	3.5760869565217392	3926.7399267399264	128.0	128.0	-0.8956785077665458	13.17315973915574	12.277481231389194	499.21877434477506	192.98132335917037	-3.9541984732824424	7.145038167938931	0.549618320610687	-0.04047976011994003	0.42728635682158916	0.10344827586206896	
1.7089488191506316E12	2.2065217391304346	-6.358695652173913	3.6739130434782608	3950.18315018315	128.0	128.0	-0.8785135601179076	13.199844741802782	12.321331181684874	499.2135094658744	192.7050975209591	-4.030534351145038	7.3893129770992365	0.564885496183206	-0.04947526236881559	0.43628185907046474	0.08395802098950525	
