Shimmer_6D72_Timestamp_Unix_CAL,Shimmer_6D72_Accel_LN_X_CAL,Shimmer_6D72_Accel_LN_Y_CAL,Shimmer_6D72_Accel_LN_Z_CAL,Shimmer_6D72_Battery_CAL,Shimmer_6D72_ECG_EMG_Status1_CAL,Shimmer_6D72_ECG_EMG_Status2_CAL,Shimmer_6D72_ECG_LA-RA_24BIT_CAL,Shimmer_6D72_ECG_LL-LA_24BIT_CAL,Shimmer_6D72_ECG_LL-RA_24BIT_CAL,Shimmer_6D72_ECG_RESP_24BIT_CAL,Shimmer_6D72_ECG_Vx-RL_24BIT_CAL,Shimmer_6D72_Gyro_X_CAL,Shimmer_6D72_Gyro_Y_CAL,Shimmer_6D72_Gyro_Z_CAL,Shimmer_6D72_Mag_X_CAL,Shimmer_6D72_Mag_Y_CAL,Shimmer_6D72_Mag_Z_CAL
ms,m/(s^2),m/(s^2),m/(s^2),mV,no_units,no_units,mV,mV,mV,mV,mV,deg/s,deg/s,deg/s,local_flux,local_flux,local_flux
1.708946482077423E12,2.369565217391304,-6.510869565,3.1304347826086953,3975.0915750915747,128,128,6.611101223361638,36.88790522669616,43.49900645,482.58442551904034,580.0185102246417,-4.870229008,4.244274809160305,0.24427480916030533,-0.077961019,0.38830584707646176,0.098950525
1.7089464820969543E12,2.3478260869565215,-6.489130435,3.152173913043478,3973.626373626373,128,128,6.8427558949894784,36.79833016375663,43.64108605874611,482.5811079241166,579.6580463240202,-2.854961832,4.229007633587786,0.030534351145038167,-0.083958021,0.39730134932533734,0.097451274
1.7089464821164856E12,2.380434782608696,-6.467391304,3.1304347826086953,3969.230769230769,128,128,7.140618221833495,36.76320693054282,43.903825152376314,482.5769969912764,580.0524073901662,-3.465648855,5.496183206,0.366412214,-0.085457271,0.39430284857571213,0.10344827586206896
1.7089464821360168E12,2.402173913043478,-6.380434783,3.1956521739130435,3973.626373626373,128,128,7.328495065,36.69786473487195,44.02635979966638,482.57815093733683,580.0689232,-2.854961832,5.679389312977099,0.5954198473282443,-0.074962519,0.3988005997001499,0.098950525
1.708946482155548E12,2.391304347826087,-6.391304348,3.1956521739130435,3973.626373626373,128,128,7.560582466194925,36.66779001567245,44.228372481867375,482.57944912665477,580.0549316471734,-2.79389313,5.358778625954198,0.7175572519083969,-0.070464768,0.3988005997001499,0.10344827586206896
1.7089464821750793E12,2.380434782608696,-6.380434783,3.1739130434782608,3972.161172161172,128,128,7.621885850654347,36.665842731695506,44.28772858234985,482.58312732972234,580.0037974123713,-3.282442748,5.526717557251908,0.7938931297709924,-0.067466267,0.39430284857571213,0.098950525
1.7089464821946106E12,2.358695652173913,-6.413043478,3.184782608695652,3973.626373626373,128,128,7.636815027810935,36.63309951,44.26991454004223,482.5836321811238,579.9616062595376,-2.79389313,5.572519083969466,0.732824427,-0.077961019,0.4017991004497751,0.11394302848575712
1.7089464822141418E12,2.402173913043478,-6.434782609,3.2065217391304346,3947.252747252747,128,128,7.707205737496107,36.52542192046904,44.232627657965146,482.5840649108964,579.9483358798428,-3.190839695,5.740458015267175,0.6564885496183206,-0.070464768,0.40629685157421286,0.10344827586206896
1.708946482233673E12,2.402173913043478,-6.434782609,3.1739130434782608,3973.626373626373,128,128,7.766345473092255,36.447819047906286,44.214164520998544,482.5842092,579.9356424731783,-3.72519084,6.061068702290076,1.0076335877862594,-0.073463268,0.39280359820089955,0.097451274
1.7089464822532043E12,2.402173913043478,-6.47826087,3.1956521739130435,3973.626373626373,128,128,7.8715709294761345,36.38081805477358,44.25238898424971,482.58399278926765,579.9426382711695,-3.374045802,6.122137404580153,0.6106870229007634,-0.077961019,0.3913043478260869,0.10344827586206896
1.7089464822727356E12,2.369565217391304,-6.47826087,3.2065217391304346,3969.230769230769,128,128,7.932874313935557,36.34987787602876,44.28275218996432,482.5856515867295,579.9362194462085,-3.374045802,6.137404580152672,0.8091603053435115,-0.077961019,0.39430284857571213,0.10344827586206896
1.7089464822922668E12,2.402173913043478,-6.445652174,3.1956521739130435,3973.626373626373,128,128,8.023603322935502,36.30321518221083,44.32681850514633,482.58767099233523,579.9390321897307,-3.175572519,6.641221374045801,0.8091603053435115,-0.073463268,0.39280359820089955,0.10194902548725637
1.708946482311798E12,2.3478260869565215,-6.402173913,3.141304347826087,3973.626373626373,128,128,8.082454572016546,36.28482417,44.367278738889546,482.58738250582013,579.9387437032156,-2.503816794,7.221374045801526,0.549618321,-0.062968516,0.3913043478260869,0.11094452773613193
1.7089464823313293E12,2.380434782608696,-6.402173913,3.152173913043478,3973.626373626373,128,128,8.146137970225569,36.22965112085952,44.37578909108509,482.5909885872589,579.6766537042444,-3.786259542,6.931297709923664,0.9618320610687022,-0.076461769,0.4002998500749625,0.10794602698650674
1.7089464823508606E12,2.358695652173913,-6.402173913,3.152173913043478,3973.626373626373,128,128,8.213860179646037,36.23996451377445,44.45382469342049,482.59618134453075,579.9303054726488,-3.175572519,6.6106870229007635,0.8549618320610687,-0.070464768,0.416791604,0.10344827586206896
1.7089464823703918E12,2.369565217391304,-6.445652174,3.1956521739130435,3947.252747252747,128,128,8.257349521797838,36.22460260684521,44.48195212864305,482.5945946686977,579.9186939,-3.541984733,6.992366412,0.9007633587786259,-0.070464768,0.38080959520239877,0.095952024
1.708946482389923E12,2.3478260869565215,-6.456521739,3.1630434782608696,3947.252747252747,128,128,8.319806852317674,36.18421449473077,44.50402134704844,482.59625346615957,579.9256896884071,-3.328244275,7.664122137,1.0687022900763359,-0.076461769,0.4002998500749625,0.094452774
1.7089464824094543E12,2.3369565217391304,-6.445652174,3.119565217391304,3973.626373626373,128,128,8.363584680984578,36.158394951629035,44.521979632613615,482.5992825745681,579.9111211193945,-2.854961832,7.648854961832061,1.3893129770992365,-0.074962519,0.38080959520239877,0.10644677661169415
1.7089464824289856E12,2.3260869565217392,-6.413043478,3.1739130434782608,3970.6959706959706,128,128,8.413781335,36.13654209810998,44.55032343272251,482.6018068315753,579.9138617,-3.251908397,7.511450381679389,1.2213740458015268,-0.073463268,0.38980509745127434,0.089955022
1.7089464824485168E12,2.3369565217391304,-6.402173913,3.108695652173913,3973.626373626373,128,128,8.451068216689613,36.11266983898519,44.563738055674804,482.6010856152875,579.9103999031067,-3.465648855,7.129770992366412,1.465648854961832,-0.068965517,0.38980509745127434,0.10494752623688156
1.708946482468048E12,2.358695652173913,-6.423913043,3.141304347826087,3973.626373626373,128,128,8.47955626,36.09485579667757,44.57441205673362,482.60288865600694,579.9106883896218,-3.86259542,6.8396946564885495,1.6030534351145038,-0.062968516,0.383808096,0.095952024
1.7089464824875793E12,2.3478260869565215,-6.402173913,3.119565217391304,3973.626373626373,128,128,8.513453425580671,36.06067014463785,44.57412357021852,482.60072500714364,579.9016731860248,-4.076335878,7.068702290076335,1.0534351145038168,-0.074962519,0.39430284857571213,0.095952024
1.7089464825071106E12,2.369565217391304,-6.402173913,3.119565217391304,3973.626373626373,128,128,8.537469927963011,36.04415429164819,44.58162422,482.60245592623426,579.9046301728047,-3.450381679,7.541984732824427,1.0381679389312977,-0.068965517,0.38530734632683655,0.10194902548725637
1.7089464825266418E12,2.391304347826087,-6.391304348,3.108695652173913,3950.18315,128,128,8.583267162235638,36.0128535,44.596120666995134,482.6031050208932,579.9051350242061,-3.816793893,7.419847328244274,1.297709923664122,-0.077961019,0.3913043478260869,0.095952024
1.708946482546173E12,2.369565217391304,-6.402173913,3.0760869565217392,3975.0915750915747,128,128,8.612837030033711,36.00088131438272,44.61371834441643,482.60317714252204,579.9098950517052,-3.496183206,7.328244275,1.0534351145038168,-0.077961019,0.40629685157421286,0.10344827586206896
1.7089464825657043E12,2.369565217391304,-6.413043478,3.0543478260869565,3973.626373626373,128,128,8.642911749233216,36.01609897805441,44.65901072728762,482.6012298585451,579.9025386455702,-3.58778626,6.992366412,0.8854961832061068,-0.067466267,0.3988005997001499,0.10344827586206896
1.7089464825852356E12,2.3478260869565215,-6.423913043,3.0869565217391304,3967.7655677655675,128,128,8.672986468432722,36.01155531544153,44.68454178387425,482.60159046668895,579.5435171775242,-3.541984733,7.1603053435114505,0.732824427,-0.076461769,0.39280359820089955,0.086956522
1.7089464826047668E12,2.3478260869565215,-6.402173913,3.0978260869565215,3973.626373626373,128,128,8.736165015240314,36.049274927291265,44.78543994253158,482.59921045293936,579.8732572642872,-3.86259542,6.8396946564885495,0.9312977099236641,-0.08095952,0.39730134932533734,0.10794602698650674
1.708946482624298E12,2.3478260869565215,-6.434782609,3.152173913043478,3972.161172161172,128,128,8.754700273835692,36.0071559,44.76185617,482.5998595475983,579.8844361167475,-4.396946565,6.7328244274809155,0.6870229007633587,-0.077961019,0.40629685157421286,0.11394302848575712
1.7089464826438293E12,2.3369565217391304,-6.434782609,3.1739130434782608,3972.161172161172,128,128,8.722894635545568,35.933808199621225,44.65670284,482.6008692504012,579.8947495096623,-4.809160305,6.7328244274809155,0.6106870229007634,-0.070464768,0.40929535232383807,0.098950525
1.7089464826633606E12,2.3369565217391304,-6.434782609,3.141304347826087,3973.626373626373,128,128,8.741718381,35.87596665334304,44.617685033999095,482.60014803411343,579.9036204700018,-5.053435115,7.022900763358779,0.564885496,-0.070464768,0.39430284857571213,0.095952024
1.7089464826828918E12,2.358695652173913,-6.434782609,3.1630434782608696,3947.252747252747,128,128,8.750012367965265,35.87531755868406,44.62532992664933,482.6015183450602,579.8999422669342,-4.748091603,7.022900763358779,0.6106870229007634,-0.083958021,0.41079460269865065,0.089955022
1.708946482702423E12,2.3478260869565215,-6.434782609,3.0652173913043477,3975.0915750915747,128,128,8.772009464741883,35.85995565175482,44.63196512,482.6008692504012,579.9039810781456,-4.610687023,6.977099236641221,0.6259541984732824,-0.076461769,0.4002998500749625,0.10494752623688156
1.7089464827219543E12,2.3369565217391304,-6.423913043,3.0978260869565215,3973.626373626373,128,128,8.780736181823753,35.86774479,44.64848096948636,482.60101349365874,579.8972737666695,-4.335877863,6.900763358778626,0.16793893129770993,-0.082458771,0.39430284857571213,0.10344827586206896
1.7089464827414856E12,2.358695652173913,-6.423913043,3.119565217391304,3967.7655677655675,128,128,8.804824805834867,35.90438258,44.70920738091557,482.5987777231667,579.9282860670431,-4.13740458,6.748091603053435,0.2595419847328244,-0.085457271,0.3988005997001499,0.1169415292353823
1.7089464827610168E12,2.358695652173913,-6.423913043,3.1304347826086953,3973.626373626373,128,128,9.129372135325925,36.512367905660625,45.64174004098655,482.59675831756095,579.6935301653779,-4.152671756,6.137404580152672,0.045801527,-0.073463268,0.38530734632683655,0.11544227886056971
1.708946482780548E12,2.380434782608696,-6.445652174,3.108695652173913,3973.626373626373,128,128,9.182958505506338,37.098572504350244,46.281531009856586,482.59675831756095,579.3366723461953,-4.564885496,5.755725190839694,0.2748091603053435,-0.08095952,0.39280359820089955,0.10794602698650674
1.7089464828000793E12,2.402173913043478,-6.445652174,3.0869565217391304,3960.43956,128,128,8.890649544078057,35.66558786220406,44.55623740628212,482.59776802036384,580.0074756154389,-4.824427481,5.511450381679389,-0.213740458,-0.073463268,0.39280359820089955,0.10794602698650674
1.7089464828196106E12,2.3260869565217392,-6.456521739,3.141304347826087,3975.0915750915747,128,128,8.896491396008898,35.847839218120484,44.74433061412938,482.59452254706895,579.9319642701107,-4.93129771,7.435114503816793,0.2900763358778626,-0.070464768,0.40629685157421286,0.10344827586206896
1.7089464828391418E12,2.3478260869565215,-6.445652174,3.043478260869565,3948.7179487179483,128,128,8.916469087179792,35.831900338161034,44.748369425340826,482.5974074,579.5841937761538,-2.748091603,7.709923664122137,0.366412214,-0.074962519,0.4017991004497751,0.098950525
1.708946482858673E12,2.391304347826087,-6.434782609,3.032608695652174,3975.0915750915747,128,128,8.919930925,35.85202227258948,44.77195319795051,482.5951716417279,579.9209297,-2.778625954,7.969465648854961,0.4427480916030534,-0.076461769,0.38980509745127434,0.097451274
1.7089464828782043E12,2.4347826086956523,-6.413043478,3.0978260869565215,3973.626373626373,128,128,8.952385658310135,35.852599245619686,44.80498490392982,482.5931522361222,579.9291515265884,-2.79389313,7.648854961832061,0.564885496,-0.083958021,0.39280359820089955,0.11244377811094453
1.7089464828977356E12,2.402173913043478,-6.413043478,3.141304347826087,3966.300366300366,128,128,8.975464579518388,35.856710178459906,44.832174757978294,482.5912771,579.9288630400733,-4,7.068702290076335,0.6412213740458015,-0.085457271,0.38830584707646176,0.092953523
1.7089464829172668E12,2.358695652173913,-6.467391304,3.108695652173913,3947.252747252747,128,128,8.990682243,35.86435507111014,44.85503731430022,482.5859400732446,579.9318921484819,-4.076335878,6.519083969465648,0.7175572519083969,-0.065967016,0.39730134932533734,0.11244377811094453
1.708946482936798E12,2.358695652173913,-6.47826087,3.0978260869565215,3973.626373626373,128,128,9.041023140075582,35.86673508485974,44.90775822493532,482.58456976229786,579.9549710696901,-3.267175573,6,0.6412213740458015,-0.070464768,0.3913043478260869,0.10344827586206896
1.7089464829563293E12,2.391304347826087,-6.489130435,3.1304347826086953,3972.161172161172,128,128,9.100018632414178,35.84459374482557,44.94461237723975,482.5826945999497,579.9742996662021,-3.969465649,6.7328244274809155,0.6259541984732824,-0.08095952,0.4047976011994003,0.10494752623688156
1.7089464829758606E12,2.402173913043478,-6.489130435,3.119565217391304,3973.626373626373,128,128,9.157066841,35.87070177444241,45.02776861521824,482.5770691129052,579.9915367354795,-4.061068702,7.022900763358779,0.9007633587786259,-0.062968516,0.4017991004497751,0.092953523
1.7089464829953918E12,2.391304347826087,-6.423913043,3.108695652173913,3947.252747252747,128,128,9.181011221529392,35.87329815307834,45.05430937460773,482.57656426150373,579.9901664245327,-4.259541985,7.083969465648854,0.9618320610687022,-0.070464768,0.3913043478260869,0.092953523
1.708946483014923E12,2.391304347826087,-6.380434783,3.108695652173913,3975.0915750915747,128,128,9.136872784718607,35.94116460575636,45.07803739047497,482.5749775856707,579.9248242288619,-3.267175573,6.961832061068702,1.3740458015267174,-0.068965517,0.38980509745127434,0.10194902548725637
1.7089464830344543E12,2.358695652173913,-6.434782609,3.0652173913043477,3973.626373626373,128,128,9.057755357951566,35.93265425356081,44.990409611512376,482.57389576123904,579.8834264139446,-3.709923664,6.687022900763359,1.297709923664122,-0.074962519,0.39430284857571213,0.10344827586206896
1.7089464830539856E12,2.369565217391304,-6.391304348,3.0978260869565215,3967.7655677655675,128,128,8.993855594856214,35.86817751743526,44.86203311229147,482.57093877445925,579.8757093996655,-2.717557252,6.854961832061068,0.9007633587786259,-0.067466267,0.39430284857571213,0.10644677661169415
1.7089464830735168E12,2.391304347826087,-6.423913043,3.0869565217391304,3945.7875457875457,128,128,8.978277323040643,35.84682951531762,44.825106838358266,482.5705781663154,579.8721754398556,-3.022900763,6.916030534351145,0.9465648854961831,-0.065967016,0.4047976011994003,0.10794602698650674
1.708946483093048E12,2.402173913043478,-6.456521739,3.141304347826087,3973.626373626373,128,128,8.981017944934123,35.82137058035977,44.80238852529389,482.5684145174521,579.5921992769479,-3.236641221,7.022900763358779,1.1450381679389312,-0.076461769,0.38980509745127434,0.10194902548725637
1.7089464831125793E12,2.402173913043478,-6.456521739,3.141304347826087,3972.161172161172,128,128,8.975103971374509,35.82959244604021,44.80469641741472,482.5671884497629,579.8612850739104,-3.435114504,7.221374045801526,1.297709923664122,-0.073463268,0.38980509745127434,0.097451274
1.7089464831321106E12,2.3478260869565215,-6.467391304,3.152173913043478,3973.626373626373,128,128,8.976113674,35.82526514831366,44.80137882249103,482.56466419275574,579.8547220056918,-3.465648855,7.648854961832061,1.2519083969465647,-0.070464768,0.39430284857571213,0.11094452773613193
1.7089464831516418E12,2.3478260869565215,-6.456521739,3.108695652173913,3948.7179487179483,128,128,8.978854296,35.829159716267554,44.808014012338404,482.56668359836146,579.8667663176974,-2.41221374,7.7251908396946565,1.0076335877862594,-0.067466267,0.3988005997001499,0.11394302848575712
1.708946483171173E12,2.358695652173913,-6.434782609,3.0760869565217392,3975.0915750915747,128,128,8.970848795276737,35.84069917687168,44.81154797214842,482.56372661158167,579.8589050601609,-2.015267176,8.213740458015266,1.3740458015267174,-0.070464768,0.383808096,0.10644677661169415
1.7089464831907043E12,2.369565217391304,-6.423913043,3.119565217391304,3973.626373626373,128,128,8.981667039593106,35.85065196164274,44.832319001235845,482.5593993138551,579.8612850739104,-2.488549618,7.709923664122137,1.4198473282442747,-0.077961019,0.383808096,0.1169415292353823
1.7089464832102356E12,2.369565217391304,-6.402173913,3.119565217391304,3966.300366300366,128,128,8.983181593797397,35.854835016111736,44.83801660990913,482.56084174643064,579.8588329,-2.610687023,7.267175572519084,1.3435114503816794,-0.08095952,0.38980509745127434,0.097451274
1.7089464832297668E12,2.369565217391304,-6.467391304,3.141304347826087,3975.0915750915747,128,128,8.992701648795801,35.85166166,44.84436331,482.55802900290837,579.8501062214501,-3.190839695,7.419847328244274,1.450381679389313,-0.070464768,0.38830584707646176,0.10344827586206896
1.708946483249298E12,2.358695652173913,-6.5,3.119565217391304,3973.626373626373,128,128,8.995586513946833,35.84048281198535,44.836069325932186,482.5566586919616,579.8581838,-2.992366412,7.435114503816793,1.2061068702290076,-0.088455772,0.39730134932533734,0.097451274
1.7089464832688293E12,2.3478260869565215,-6.489130435,3.108695652173913,3966.300366300366,128,128,8.999769568415829,35.83637187914513,44.83614144756096,482.55427867821203,579.8425334504287,-2.335877863,7.709923664122137,0.9618320610687022,-0.077961019,0.39430284857571213,0.11094452773613193
1.7089464832883606E12,2.358695652173913,-6.445652174,3.0869565217391304,3975.0915750915747,128,128,9.003592014740946,35.83283791933512,44.836429934076065,482.55427867821203,579.8435431532315,-1.618320611,7.648854961832061,1.4351145038167938,-0.08095952,0.38530734632683655,0.10494752623688156
1.7089464833078918E12,2.358695652173913,-6.456521739,3.0869565217391304,3950.18315,128,128,8.993206500197232,35.82764516206326,44.820851662260495,482.5552883810149,579.8389994906187,-0.625954198,7.664122137,1.2213740458015268,-0.076461769,0.38980509745127434,0.10194902548725637
1.708946483327423E12,2.3369565217391304,-6.456521739,3.0978260869565215,3976.556776556776,128,128,8.994937419,35.81307659305055,44.808014012338404,482.55189866446244,579.8314267195972,-0.824427481,7.099236641221374,1.3893129770992365,-0.076461769,0.4002998500749625,0.10494752623688156
1.7089464833469543E12,2.358695652173913,-6.413043478,3.108695652173913,3973.626373626373,128,128,9.002293825422981,35.785454009229426,44.78774783465241,482.54980713722796,579.4765161843916,-1.404580153,7.2824427480916025,1.3587786259541985,-0.068965517,0.3823088455772114,0.1199400299850075
1.7089464833664856E12,2.391304347826087,-6.445652174,3.1739130434782608,3966.300366300366,128,128,8.987725256410272,35.816322066345464,44.804047322755736,482.5478599,579.8069774874423,-1.786259542,7.312977099236641,1.3587786259541985,-0.076461769,0.39280359820089955,0.10494752623688156
1.7089464833860168E12,2.3369565217391304,-6.445652174,3.1304347826086953,3973.626373626373,128,128,8.984119174971482,35.81264386,44.79676303824938,482.54836470465244,579.8125309,-1.618320611,6.870229007633587,1.0076335877862594,-0.076461769,0.39730134932533734,0.10194902548725637
1.708946483405548E12,2.358695652173913,-6.434782609,3.152173913043478,3973.626373626373,128,128,8.989600418758442,35.799517726840705,44.78911814559915,482.5462731774179,579.8189497,-1.34351145,6.793893129770992,1.0076335877862594,-0.091454273,0.39280359820089955,0.11544227886056971
1.7089464834250793E12,2.369565217391304,-6.445652174,3.141304347826087,3973.626373626373,128,128,8.994721054401523,35.82252452642018,44.817245580821705,482.5487253127963,579.8164975424406,-0.65648855,6.580152671755725,0.8854961832061068,-0.073463268,0.39730134932533734,0.1199400299850075
1.7089464834446106E12,2.358695652173913,-6.445652174,3.141304347826087,3973.626373626373,128,128,9.006116271748098,35.877264842661006,44.883381114409104,482.5448307448424,579.7993326,-0.595419847,7.0534351145038165,1.129770992366412,-0.070464768,0.3913043478260869,0.098950525
1.7089464834641418E12,2.3478260869565215,-6.413043478,3.1739130434782608,3947.252747252747,128,128,9.028473976668595,35.904671061595806,44.93314504,482.54410952855466,579.7977459,0.183206107,6.793893129770992,0.564885496,-0.067466267,0.3988005997001499,0.1169415292353823
1.708946483483673E12,2.3478260869565215,-6.423913043,3.184782608695652,3973.626373626373,128,128,9.028041247,35.86435507111014,44.89239631800608,482.54338831226687,579.8091411363055,-0.488549618,6.427480916030534,0.549618321,-0.074962519,0.4017991004497751,0.11094452773613193
1.7089464835032043E12,2.3152173913043477,-6.434782609,3.2282608695652173,3973.626373626373,128,128,8.992268919023147,35.75833627680973,44.750605195832875,482.5440374069259,579.8342394631195,-0.916030534,6.351145038167939,0.7480916030534351,-0.065967016,0.38530734632683655,0.10494752623688156
1.7089464835227356E12,2.3152173913043477,-6.445652174,3.2282608695652173,3963.369963369963,128,128,8.988446473,35.74823924878112,44.73668572147915,482.5459846909028,579.8332297603166,-0.854961832,6.1679389312977095,0.47328244274809156,-0.059970015,0.4017991004497751,0.095952024
1.7089464835422668E12,2.3478260869565215,-6.413043478,3.2282608695652173,3975.0915750915747,128,128,8.981090067,35.75004228950051,44.73113235606341,482.54237860946404,579.8294794356203,-0.549618321,6.305343511450381,0.4580152671755725,-0.089955022,0.38830584707646176,0.088455772
1.708946483561798E12,2.369565217391304,-6.423913043,3.1956521739130435,3973.626373626373,128,128,8.977411863495334,35.75494656025727,44.73235842,482.5415852715475,579.8188775561903,-0.41221374,5.801526717557252,0.7022900763358778,-0.074962519,0.38830584707646176,0.11094452773613193
1.7089464835813293E12,2.358695652173913,-6.445652174,3.2065217391304346,3973.626373626373,128,128,8.992990135310905,35.74715742434948,44.740147559660386,482.5400707173432,579.8049580818365,-0.946564885,5.465648854961832,0.6870229007633587,-0.077961019,0.40629685157421286,0.092953523
1.7089464836008606E12,2.3369565217391304,-6.467391304,3.2065217391304346,3973.626373626373,128,128,8.99940896,35.878995761751625,44.878404722023575,482.53639251427563,579.4954841727596,0.061068702290076333,5.343511450381679,0.42748091603053434,-0.089955022,0.38830584707646176,0.092953523
1.7089464836203918E12,2.3260869565217392,-6.434782609,3.217391304347826,3948.7179487179483,128,128,9.371123834982376,36.62985403893638,46.00097787391876,482.5336518923822,579.4224970844385,1.282442748091603,5.312977099236641,0.2595419847328244,-0.085457271,0.4017991004497751,0.1169415292353823
1.708946483639923E12,2.3478260869565215,-6.467391304,3.25,3975.0915750915747,128,128,9.223562982507108,36.117429866484386,45.34099285,482.53329128423826,579.6229952124352,0.1984732824427481,5.557251908396946,0.24427480916030533,-0.074962519,0.40929535232383807,0.092953523
1.7089464836594543E12,2.358695652173913,-6.413043478,3.217391304347826,3975.0915750915747,128,128,9.032224301364936,35.72256394893694,44.75478825030187,482.53430098704115,579.8667663176974,1.5267175572519083,5.022900763358779,0.2900763358778626,-0.061469265,0.38980509745127434,0.11244377811094453
1.7089464836789856E12,2.3369565217391304,-6.402173913,3.369565217391304,3964.8351648351645,128,128,9.031647328,35.805359578771544,44.83700690710627,482.5314882435189,579.8418843557697,-0.473282443,5.847328244274809,0.38167938931297707,-0.070464768,0.3913043478260869,0.092953523
1.7089464836985168E12,2.3260869565217392,-6.434782609,3.260869565217391,3945.7875457875457,128,128,9.042681937537425,35.76706299,44.80974493142902,482.53019005420094,579.8250078946362,0.061068702290076333,6.595419847328244,0.2900763358778626,-0.073463268,0.38980509745127434,0.097451274
1.708946483718048E12,2.358695652173913,-6.402173913,3.2717391304347827,3973.626373626373,128,128,9.032224301364936,35.77557334608714,44.80779764745208,482.5299736893146,579.8188775561903,1.129770992366412,6.152671755725191,0.2748091603053435,-0.065967016,0.39730134932533734,0.07946027
1.7089464837375793E12,2.358695652173913,-6.413043478,3.260869565217391,3972.161172161172,128,128,9.059486277042184,35.77369818373897,44.833184460781155,482.5284591351103,579.8256569892951,0.9465648854961831,6.305343511450381,0.47328244274809156,-0.08095952,0.41079460269865065,0.089955022
1.7089464837571106E12,2.3369565217391304,-6.402173913,3.3369565217391304,3973.626373626373,128,128,9.063308723367301,35.78639159040351,44.84970031377081,482.53019005420094,579.8333018819454,-0.610687023,5.908396946564885,0.2900763358778626,-0.074962519,0.3988005997001499,0.10344827586206896
1.7089464837766418E12,2.3369565217391304,-6.434782609,3.369565217391304,3948.7179487179483,128,128,9.108456862980946,35.78898796903944,44.89744483202038,482.5255021483305,579.8424613287999,-1.34351145,4.687022900763359,0.4580152671755725,-0.088455772,0.4047976011994003,0.089955022
1.708946483796173E12,2.358695652173913,-6.434782609,3.3478260869565215,3973.626373626373,128,128,9.128218189265512,35.79908499706805,44.92730318633356,482.52211243177805,579.8522698703134,-1.58778626,4.549618320610687,0.15267175572519084,-0.088455772,0.41529235382308843,0.10494752623688156
1.7089464838157043E12,2.4130434782608696,-6.456521739,3.3804347826086953,3972.161172161172,128,128,9.161682625,35.80442199759746,44.966104622614935,482.52319425620965,579.8798203325058,-1.832061069,4.977099236641221,0.030534351145038167,-0.076461769,0.4077961019490255,0.10794602698650674
1.7089464838352356E12,2.4239130434782608,-6.445652174,3.3152173913043477,3963.369963369963,128,128,9.236544876,35.80745110600604,45.043995981692795,482.5228336480658,579.9077314,-0.992366412,5.038167938931298,0.076335878,-0.074962519,0.3988005997001499,0.092953523
1.7089464838547668E12,2.380434782608696,-6.402173913,3.3369565217391304,3972.161172161172,128,128,9.266980203030135,35.80846081,45.07544101183904,482.5222566750356,579.6209036852007,-1.312977099,5.221374045801526,0.10687022900763359,-0.082458771,0.4017991004497751,0.088455772
1.708946483874298E12,2.380434782608696,-6.402173913,3.3478260869565215,3973.626373626373,128,128,9.206614399744797,35.90135346667212,45.10796786641692,482.52038151268744,579.8159926910392,-2.213740458,5.145038167938931,0.732824427,-0.083958021,0.39280359820089955,0.10494752623688156
1.7089464838938293E12,2.402173913043478,-6.391304348,3.3369565217391304,3972.161172161172,128,128,9.123602405023862,35.879861221296935,45.003463626320794,482.51908332336944,579.7860622150972,-1.419847328,5.511450381679389,0.6259541984732824,-0.070464768,0.38830584707646176,0.10344827586206896
1.7089464839133606E12,2.4347826086956523,-6.402173913,3.3804347826086953,3973.626373626373,128,128,9.059919007,35.80456624085501,44.86448524766985,482.5163427,579.7770470115003,-1.572519084,6.458015267175572,0.6106870229007634,-0.085457271,0.4017991004497751,0.10344827586206896
1.7089464839328918E12,2.391304347826087,-6.402173913,3.391304347826087,3947.252747252747,128,128,9.049677735528677,35.785309765971874,44.83498750150055,482.51511663378676,579.7775518629018,-1.160305344,6.641221374045801,0.4427480916030534,-0.076461769,0.38980509745127434,0.10194902548725637
1.708946483952423E12,2.402173913043478,-6.413043478,3.391304347826087,3973.626373626373,128,128,9.041023140075582,35.781343076389206,44.822366216464786,482.5166311879911,579.7755325,-2.366412214,6.366412213740458,0.8244274809160305,-0.074962519,0.4017991004497751,0.11094452773613193
1.7089464839719543E12,2.402173913043478,-6.456521739,3.4239130434782608,3972.161172161172,128,128,9.043403153825183,35.773626062110196,44.81702921593538,482.51374632284006,579.7661566455552,-2.549618321,6.473282442748092,0.6717557251908397,-0.076461769,0.39280359820089955,0.10194902548725637
1.7089464839914856E12,2.402173913043478,-6.434782609,3.3369565217391304,3964.8351648351645,128,128,9.047009235263973,35.77441940002673,44.82142864,482.5123760118933,579.7675990781306,-2.610687023,6.717557251908397,0.5190839694656488,-0.073463268,0.4002998500749625,0.10194902548725637
1.7089464840110168E12,2.4130434782608696,-6.413043478,3.3804347826086953,3973.626373626373,128,128,9.050759559960314,35.773626062110196,44.82438562207051,482.5126644984084,579.7705560649105,-1.938931298,6.6106870229007635,0.9770992366412213,-0.070464768,0.39430284857571213,0.095952024
1.708946484030548E12,2.391304347826087,-6.402173913,3.369565217391304,3973.626373626373,128,128,9.045927410832336,35.782713387335946,44.82864079816828,482.51187116049186,579.7663730104415,-2.305343511,7.190839694656488,0.9465648854961831,-0.070464768,0.4017991004497751,0.098950525
1.7089464840500793E12,2.4239130434782608,-6.358695652,3.369565217391304,3972.161172161172,128,128,9.045422559430905,35.78970919,44.83513174,482.51014024140125,579.7478377518461,-1.969465649,7.2824427480916025,1.1603053435114503,-0.076461769,0.38530734632683655,0.10794602698650674
1.7089464840696106E12,2.380434782608696,-6.402173913,3.358695652173913,3973.626373626373,128,128,9.040301923787824,35.79468557771273,44.83498750150055,482.51042872791635,579.7473329004447,-2.015267176,7.221374045801526,1.114503816793893,-0.083958021,0.39730134932533734,0.094452774
1.7089464840891418E12,2.369565217391304,-6.413043478,3.402173913043478,3947.252747252747,128,128,9.049894100415004,35.78877160415311,44.838665704568115,482.5103566062876,579.7478377518461,-2.763358779,6.961832061068702,1.1755725190839694,-0.076461769,0.38980509745127434,0.10494752623688156
1.708946484108673E12,2.391304347826087,-6.423913043,3.391304347826087,3947.252747252747,128,128,9.054870492800534,35.76504358828588,44.81991408108641,482.50862568719697,579.4057648665625,-2.687022901,7.007633587786259,1.0076335877862594,-0.076461769,0.41529235382308843,0.097451274
1.7089464841282043E12,2.402173913043478,-6.456521739,3.402173913043478,3975.0915750915747,128,128,9.043980127,35.784588549684116,44.828568676539504,482.50869780882573,579.730817,-2.41221374,7.358778625954198,1.1755725190839694,-0.077961019,0.38830584707646176,0.095952024
1.7089464841477356E12,2.369565217391304,-6.445652174,3.4239130434782608,3964.8351648351645,128,128,9.049894100415004,35.77283272419366,44.822726824608665,482.50985175488614,579.7402649808246,-2.717557252,7.251908396946565,1.0534351145038168,-0.073463268,0.4002998500749625,0.094452774
1.7089464841672668E12,2.391304347826087,-6.434782609,3.4130434782608696,3973.626373626373,128,128,9.043258910567632,35.77405879188285,44.81731770245048,482.5110778225753,579.7329806963182,-2.396946565,7.496183206,1.297709923664122,-0.073463268,0.39280359820089955,0.083958021
1.708946484186798E12,2.380434782608696,-6.402173913,3.402173913043478,3973.626373626373,128,128,9.044701343143148,35.755667776545025,44.80036911968817,482.51367420121124,579.7389667915066,-2.351145038,7.496183206,1.3435114503816794,-0.068965517,0.4077961019490255,0.094452774
1.7089464842063293E12,2.402173913043478,-6.402173913,3.3804347826086953,3972.161172161172,128,128,9.041455869848237,35.75227805999256,44.79373393,482.51014024140125,579.7347116154089,-2.625954198,7.801526717557252,1.4045801526717556,-0.083958021,0.4002998500749625,0.10194902548725637
1.7089464842258606E12,2.358695652173913,-6.391304348,3.4130434782608696,3973.626373626373,128,128,9.040013437272721,35.75465807374216,44.79467151101488,482.51201540374944,579.7346394937802,-2.183206107,7.221374045801526,1.3740458015267174,-0.074962519,0.3988005997001499,0.088455772
1.7089464842453918E12,2.369565217391304,-6.402173913,3.4130434782608696,3948.7179487179483,128,128,9.042321329393546,35.74888834,44.791209672833645,482.5147560256429,579.7341346423786,-3.34351145,7.038167938931298,1.114503816793893,-0.073463268,0.39280359820089955,0.097451274
1.708946484264923E12,2.369565217391304,-6.380434783,3.434782608695652,3973.626373626373,128,128,9.045711045946009,35.745210140372535,44.79092118631854,482.51367420121124,579.7297352230233,-3.114503817,7.145038167938931,0.9312977099236641,-0.089955022,0.39430284857571213,0.10644677661169415
1.7089464842844543E12,2.358695652173913,-6.423913043,3.4239130434782608,3973.626373626373,128,128,9.048307424581937,35.73915192355537,44.787459348137304,482.51540512030186,579.7368031426433,-3.419847328,7.0534351145038165,1.0381679389312977,-0.062968516,0.416791604,0.10344827586206896
1.7089464843039856E12,2.369565217391304,-6.413043478,3.4239130434782608,3963.369963369963,128,128,9.037489180265569,35.74405619431212,44.78154537457769,482.5136020795825,579.7422122648015,-3.58778626,6.687022900763359,0.9618320610687022,-0.074962519,0.3913043478260869,0.092953523
1.7089464843235168E12,2.369565217391304,-6.413043478,3.4239130434782608,3944.322344322344,128,128,9.047658329922955,35.73864707215394,44.78630540207689,482.5103566062876,579.7362983,-3.679389313,6.824427480916031,0.9923664122137404,-0.082458771,0.38830584707646176,0.10344827586206896
1.708946484343048E12,2.3478260869565215,-6.402173913,3.402173913043478,3973.626373626373,128,128,9.052995330452363,35.75372049256808,44.80671582302044,482.5093469034847,579.7375243589312,-3.603053435,6.992366412,1.0381679389312977,-0.088455772,0.38980509745127434,0.094452774
1.7089464843625793E12,2.3478260869565215,-6.423913043,3.402173913043478,3972.161172161172,128,128,9.069222696926916,35.80478260574134,44.87400530266825,482.5112220658329,579.7236770062062,-3.511450382,6.564885496183206,1.0229007633587786,-0.073463268,0.4002998500749625,0.094452774
1.7089464843821106E12,2.380434782608696,-6.413043478,3.4239130434782608,3973.626373626373,128,128,9.108528984609721,35.81862995846629,44.92715894307601,482.51201540374944,579.6959101791275,-3.404580153,6.549618320610687,0.9312977099236641,-0.083958021,0.39280359820089955,0.10494752623688156
1.7089464844016418E12,2.369565217391304,-6.413043478,3.391304347826087,3950.18315,128,128,9.087180982492088,35.76590904783119,44.85309003032327,482.5094911467423,579.7246867,-3.511450382,6.778625954198473,1.099236641221374,-0.077961019,0.39430284857571213,0.095952024
1.708946484421173E12,2.358695652173913,-6.413043478,3.4130434782608696,3973.626373626373,128,128,9.044701343143148,35.71311601556731,44.757817358710454,482.5127366200372,579.7396880077944,-3.541984733,6.748091603053435,1.0076335877862594,-0.073463268,0.39280359820089955,0.097451274
1.7089464844407043E12,2.3369565217391304,-6.402173913,3.3804347826086953,3973.626373626373,128,128,9.036046747690053,35.69378742,44.72983416674545,482.50927478185594,579.7396880077944,-3.282442748,6.824427480916031,0.9923664122137404,-0.074962519,0.3988005997001499,0.098950525
1.7089464844602356E12,2.3369565217391304,-6.380434783,3.3804347826086953,3963.369963369963,128,128,9.047946816438058,35.68563767500373,44.73358449144179,482.5106450928027,579.7450250083239,-2.946564885,6.885496183206107,1.2061068702290076,-0.077961019,0.3913043478260869,0.10644677661169415
1.7089464844797668E12,2.3260869565217392,-6.413043478,3.391304347826087,3972.161172161172,128,128,9.045494681059681,35.68275281,44.72824749091238,482.5096353899998,579.7413468052563,-3.083969466,7.328244275,1.0381679389312977,-0.077961019,0.40929535232383807,0.11094452773613193
1.708946484499298E12,2.3369565217391304,-6.402173913,3.4130434782608696,3973.626373626373,128,128,9.045278316173354,35.69147952693457,44.736757843107924,482.5092026602272,579.7435104541196,-3.34351145,6.931297709923664,0.8702290076335878,-0.073463268,0.41829085457271364,0.097451274
1.7089464845188293E12,2.369565217391304,-6.423913043,3.3804347826086953,3972.161172161172,128,128,9.038210396553326,35.766630264118945,44.80484066067227,482.5094190251135,579.7551941579812,-3.083969466,6.519083969465648,0.8091603053435115,-0.073463268,0.4077961019490255,0.097451274
1.7089464845383606E12,2.3478260869565215,-6.391304348,3.402173913043478,3973.626373626373,128,128,9.613308264411481,36.76767847152692,46.38098674,482.5078323492804,579.162715,-3.221374046,6.442748091603053,0.5801526717557252,-0.088455772,0.4047976011994003,0.10194902548725637
1.7089464845578918E12,2.358695652173913,-6.434782609,3.3804347826086953,3954.5787545787543,128,128,9.409708906377425,36.33148686069094,45.74119576706836,482.5141790526127,579.3552797264194,-3.557251908,6.65648855,0.732824427,-0.083958021,0.41079460269865065,0.10194902548725637
1.708946484577423E12,2.358695652173913,-6.402173913,3.3804347826086953,3975.0915750915747,128,128,9.117616309835471,35.585388611005385,44.703004920840854,482.51280874166594,579.7685366593047,-3.007633588,6.244274809160305,0.564885496,-0.067466267,0.3988005997001499,0.095952024
1.7089464845969543E12,2.369565217391304,-6.423913043,3.4782608695652173,3975.0915750915747,128,128,9.091724645104962,35.73569008537413,44.82741473047909,482.5102124,579.7616851,-4.183206107,6.977099236641221,0.7175572519083969,-0.070464768,0.3988005997001499,0.10344827586206896
1.7089464846164856E12,2.3478260869565215,-6.423913043,3.369565217391304,3964.8351648351645,128,128,9.099513781012748,35.68909951318497,44.78861329419772,482.5130251065523,579.4699531,-3.374045802,7.6183206106870225,0.7633587786259541,-0.073463268,0.39730134932533734,0.094452774
1.7089464846360168E12,2.369565217391304,-6.413043478,3.402173913043478,3973.626373626373,128,128,9.103191984080313,35.71600088071834,44.81919286479865,482.51230389026455,579.7818070389994,-2.580152672,7.129770992366412,0.7022900763358778,-0.089955022,0.40629685157421286,0.088455772
1.708946484655548E12,2.369565217391304,-6.402173913,3.3478260869565215,3973.626373626373,128,128,9.109610809041358,35.718164529581614,44.82777533862297,482.5150445,579.7877931341878,-3.053435115,7.358778625954198,0.9618320610687022,-0.082458771,0.383808096,0.088455772
1.7089464846750793E12,2.358695652173913,-6.380434783,3.4782608695652173,3972.161172161172,128,128,9.127569095,35.72314092196714,44.85071001657367,482.5116547956055,579.8076265821012,-4.717557252,7.3893129770992365,1.099236641221374,-0.077961019,0.40629685157421286,0.098950525
1.7089464846946106E12,2.3478260869565215,-6.413043478,3.4782608695652173,3972.161172161172,128,128,9.161177774,35.71946271889958,44.880640492515624,482.51338571469614,579.8124587312292,-5.58778626,6.824427480916031,1.2213740458015268,-0.085457271,0.3988005997001499,0.095952024
1.7089464847141418E12,2.358695652173913,-6.467391304,3.4565217391304346,3948.7179487179483,128,128,9.197527074519048,35.721049394732646,44.91857646925169,482.51014024140125,579.8197430157355,-5.770992366,6.442748091603053,0.7175572519083969,-0.077961019,0.3988005997001499,0.11094452773613193
1.708946484733673E12,2.369565217391304,-6.467391304,3.3804347826086953,3973.626373626373,128,128,9.248084336290876,35.74066647775966,44.98875081405053,482.51057297117393,579.8614293171679,-5.328244275,6.885496183206107,0.4580152671755725,-0.088455772,0.38530734632683655,0.094452774
1.7089464847532043E12,2.4239130434782608,-6.413043478,3.4239130434782608,3973.626373626373,128,128,9.283568177648567,35.75934597961259,45.04291415726116,482.51071721443145,579.8796760892483,-5.34351145,7.145038167938931,0.41221374045801523,-0.070464768,0.39430284857571213,0.10644677661169415
1.7089464847727356E12,2.391304347826087,-6.402173913,3.369565217391304,3963.369963369963,128,128,9.316383518741551,35.79612801028824,45.112511529029796,482.5097796332574,579.8766469808396,-5.664122137,7.435114503816793,0.8396946564885496,-0.077961019,0.40629685157421286,0.088455772
1.7089464847922668E12,2.369565217391304,-6.391304348,3.3478260869565215,3972.161172161172,128,128,9.290203367,35.84776709649171,45.13797046398765,482.50833720068186,579.8209690834248,-5.435114504,7.068702290076335,0.9312977099236641,-0.077961019,0.3988005997001499,0.10344827586206896
1.708946484811798E12,2.3260869565217392,-6.423913043,3.358695652173913,3973.626373626373,128,128,9.178991816,35.82115421547344,45.00014603139711,482.5090584169696,579.7854852,-5.72519084,6.717557251908397,0.8244274809160305,-0.08095952,0.4002998500749625,0.097451274
1.7089464848313293E12,2.369565217391304,-6.402173913,3.358695652173913,3973.626373626373,128,128,9.115308417714646,35.79382011816742,44.90912853588206,482.5149002689005,579.7694021,-5.328244275,6.702290076335878,0.916030534,-0.08095952,0.39280359820089955,0.10494752623688156
1.7089464848508606E12,2.402173913043478,-6.413043478,3.3478260869565215,3973.626373626373,128,128,9.093239199309254,35.759418101241366,44.85265730055062,482.5150445,579.7751718491521,-4.992366412,6.870229007633587,0.6870229007633587,-0.068965517,0.4047976011994003,0.10794602698650674
1.7089464848703918E12,2.380434782608696,-6.445652174,3.358695652173913,3957.5091575091574,128,128,9.097710740293353,35.73439189605617,44.83210263634952,482.51309722818104,579.4297092,-5.175572519,6.351145038167939,0.7480916030534351,-0.083958021,0.4047976011994003,0.097451274
1.708946484889923E12,2.369565217391304,-6.467391304,3.358695652173913,3975.0915750915747,128,128,9.091508280218635,35.74910470832643,44.84061298854506,482.5164869447335,579.7737294165765,-5.465648855,6.381679389312977,0.5343511450381679,-0.076461769,0.39730134932533734,0.10194902548725637
1.7089464849094543E12,2.3478260869565215,-6.467391304,3.293478260869565,3973.626373626373,128,128,9.097638618664577,35.74852773529622,44.84616635,482.5180014989378,579.7709166730543,-5.435114504,6.335877863,0.564885496,-0.076461769,0.38530734632683655,0.097451274
1.7089464849289856E12,2.3478260869565215,-6.413043478,3.3260869565217392,3964.8351648351645,128,128,9.110332025329116,35.74888834,44.859220368769215,482.5186505935968,579.7703397000241,-5.06870229,5.984732824427481,0.3511450381679389,-0.082458771,0.3913043478260869,0.095952024
1.7089464849485168E12,2.358695652173913,-6.402173913,3.2717391304347827,3975.0915750915747,128,128,9.096196186089061,35.76093265544566,44.85712884153472,482.5216075803766,579.7666614969565,-5.114503817,6.183206106870228,0.6259541984732824,-0.083958021,0.39730134932533734,0.10794602698650674
1.708946484968048E12,2.358695652173913,-6.358695652,3.282608695652174,3975.0915750915747,128,128,9.106076849231345,35.75747081726442,44.86354766649576,482.5224730399219,579.7642093615782,-5.267175573,6.65648855,0.6106870229007634,-0.085457271,0.39430284857571213,0.095952024
1.7089464849875793E12,2.369565217391304,-6.380434783,3.2717391304347827,3973.626373626373,128,128,9.097927105,35.77600608,44.873933181039476,482.52535790507295,579.7590166043063,-4.564885496,6.687022900763359,0.33587786259541985,-0.076461769,0.4077961019490255,0.11244377811094453
1.7089464850071106E12,2.358695652173913,-6.434782609,3.3152173913043477,3973.626373626373,128,128,9.102182281277452,35.77326545396632,44.87544773524377,482.5283870134815,579.7566365905567,-5.72519084,5.969465648854961,0.916030534,-0.088455772,0.4002998500749625,0.097451274
1.7089464850266418E12,2.369565217391304,-6.47826087,3.3043478260869565,3960.43956,128,128,9.107375038549309,35.77189514301958,44.879270181568884,482.5287476216254,579.7472607788159,-5.923664122,6.198473282442748,0.9312977099236641,-0.076461769,0.39730134932533734,0.10794602698650674
1.708946485046173E12,2.369565217391304,-6.467391304,3.2717391304347827,3973.626373626373,128,128,9.107591403435636,35.767495723664254,44.87508712709989,482.52946883791316,579.7544729416935,-6.076335878,5.435114503816794,0.7480916030534351,-0.08095952,0.39730134932533734,0.11244377811094453
1.7089464850657043E12,2.391304347826087,-6.445652174,3.260869565217391,3973.626373626373,128,128,9.102759254307658,35.76324054756648,44.86599980187414,482.5305506623448,579.7371637507873,-4.946564885,6.061068702290076,0.9770992366412213,-0.089955022,0.3988005997001499,0.088455772
1.7089464850852356E12,2.402173913043478,-6.445652174,3.2282608695652173,3963.369963369963,128,128,9.100018632414178,35.75083562741705,44.85085425983122,482.5339403788973,579.7478377518461,-4.885496183,6.2748091603053435,0.8091603053435115,-0.076461769,0.39730134932533734,0.10494752623688156
1.7089464851047668E12,2.358695652173913,-6.413043478,3.260869565217391,3973.626373626373,128,128,9.106653822261551,35.75011441112929,44.85676823339084,482.5350943249577,579.7429334810894,-5.160305344,6.473282442748092,0.8549618320610687,-0.076461769,0.39730134932533734,0.10494752623688156
1.708946485124298E12,2.380434782608696,-6.413043478,3.25,3972.161172161172,128,128,9.112567795821166,35.73431977442739,44.846887570248555,482.5383397982526,579.4275455984528,-5.083969466,6.366412213740458,0.8702290076335878,-0.085457271,0.4017991004497751,0.077961019
1.7089464851438293E12,2.358695652173913,-6.402173913,3.2065217391304346,3973.626373626373,128,128,9.100739848701936,35.74888834,44.849628192142035,482.53826767662383,579.7339182774923,-5.450381679,6.2748091603053435,0.6412213740458015,-0.085457271,0.39430284857571213,0.088455772
1.7089464851633606E12,2.402173913043478,-6.434782609,3.217391304347826,3966.300366300366,128,128,9.114082350025457,35.73157915253391,44.845661502559366,482.53992647408563,579.7415631701426,-5.770992366,5.847328244274809,0.24427480916030533,-0.062968516,0.4017991004497751,0.10644677661169415
1.7089464851828918E12,2.380434782608696,-6.445652174,3.25,3948.7179487179483,128,128,9.102326524535004,35.73540159885903,44.83772812339403,482.5427392176079,579.7400486159383,-5.358778626,6.335877863,0.6717557251908397,-0.08095952,0.38980509745127434,0.10194902548725637
1.708946485202423E12,2.380434782608696,-6.423913043,3.2391304347826084,3973.626373626373,128,128,9.111053241616874,35.73554584211658,44.84659908373345,482.5443259,579.7303121960535,-5.114503817,6.335877863,0.33587786259541985,-0.082458771,0.39430284857571213,0.098950525
1.7089464852219543E12,2.358695652173913,-6.445652174,3.1956521739130435,3973.626373626373,128,128,9.110620512,35.729631868556964,44.84025238040118,482.54591256927404,579.7359376830981,-5.603053435,5.740458015267175,0.6870229007633587,-0.083958021,0.38530734632683655,0.10194902548725637
1.7089464852414856E12,2.380434782608696,-6.434782609,3.2065217391304346,3963.369963369963,128,128,9.124107256425292,35.72068878658877,44.84479604301406,482.5474271234783,579.7251915604105,-5.572519084,6.152671755725191,0.564885496,-0.068965517,0.4047976011994003,0.12293853073463268
1.7089464852610168E12,2.391304347826087,-6.434782609,3.217391304347826,3973.626373626373,128,128,9.115741147,35.74030586961578,44.85604701710308,482.54980713722796,579.7272831,-5.236641221,6.290076335877862,0.5038167938931297,-0.073463268,0.4002998500749625,0.10494752623688156
1.708946485280548E12,2.391304347826087,-6.423913043,3.1630434782608696,3973.626373626373,128,128,9.119347229,35.73193976067779,44.85128698960388,482.55175442120486,579.7228836682897,-5.374045802,6.519083969465648,0.8091603053435115,-0.073463268,0.38980509745127434,0.097451274
1.7089464853000793E12,2.391304347826087,-6.445652174,3.1956521739130435,3973.626373626373,128,128,9.122232094077122,35.73230036882167,44.85453246289879,482.5552162593861,579.7232442764335,-4.732824427,6.244274809160305,0.6717557251908397,-0.083958021,0.4077961019490255,0.10794602698650674
1.7089464853196106E12,2.391304347826087,-6.423913043,3.184782608695652,3964.8351648351645,128,128,9.115885390744852,35.74672469457683,44.86261008532168,482.5570914217343,579.7113442076856,-5.022900763,6.412213740458015,0.8702290076335878,-0.065967016,0.38980509745127434,0.10794602698650674
1.7089464853391418E12,2.380434782608696,-6.434782609,3.1956521739130435,3950.18315,128,128,9.127569095,35.73345431488208,44.86102340948861,482.55687505684796,579.7054302,-5.083969466,6.427480916030534,0.549618321,-0.082458771,0.38830584707646176,0.088455772
1.708946485358673E12,2.380434782608696,-6.434782609,3.1739130434782608,3975.0915750915747,128,128,9.123241796879983,35.79995045661336,44.92319225349334,482.5588944624537,579.6922319760599,-4.580152672,6.229007633587786,0.6564885496183206,-0.062968516,0.3988005997001499,0.1169415292353823
1.7089464853782043E12,2.380434782608696,-6.413043478,3.152173913043478,3975.0915750915747,128,128,9.157715935434812,35.78660795528984,44.94432389072465,482.55997628688533,579.3970381494806,-4.977099237,6.198473282442748,0.7633587786259541,-0.068965517,0.39280359820089955,0.10794602698650674
1.7089464853977356E12,2.4130434782608696,-6.445652174,3.2065217391304346,3961.9047619047615,128,128,9.169616004182817,35.792666172107005,44.96228217628982,482.5627890304076,579.6956938142412,-5.603053435,6.259541984732824,0.9007633587786259,-0.070464768,0.3913043478260869,0.11094452773613193
1.7089464854172668E12,2.369565217391304,-6.413043478,3.1739130434782608,3973.626373626373,128,128,9.123602405023862,35.75465807374216,44.87826047876602,482.5651690441572,579.7047811,-7.145038168,5.755725190839694,0.8091603053435115,-0.083958021,0.38980509745127434,0.094452774
1.708946485436798E12,2.380434782608696,-6.413043478,3.141304347826087,3975.0915750915747,128,128,9.127496972977754,35.704966271515644,44.83246324,482.5660345037025,579.7212248708278,-8.351145038,5.847328244274809,0.549618321,-0.067466267,0.4017991004497751,0.10644677661169415
1.7089464854563293E12,2.380434782608696,-6.434782609,3.0978260869565215,3975.0915750915747,128,128,9.120429053357727,35.707706893409124,44.82813594676685,482.5686308823384,579.7130030051474,-8.641221374,6.1679389312977095,0.4427480916030534,-0.068965517,0.38980509745127434,0.10494752623688156
1.7089464854758606E12,2.380434782608696,-6.445652174,3.108695652173913,3973.626373626373,128,128,9.128867283924494,35.70280262265237,44.83166990657686,482.57122726097435,579.7114163293143,-8.381679389,6.045801526717557,0.7480916030534351,-0.083958021,0.39730134932533734,0.097451274
1.7089464854953918E12,2.391304347826087,-6.47826087,3.0652173913043477,3947.252747252747,128,128,9.109538687412583,35.72624215,44.83578083941708,482.57577092358724,579.7068005450726,-7.72519084,6.1679389312977095,0.6106870229007634,-0.08095952,0.38530734632683655,0.10194902548725637
1.708946485514923E12,2.369565217391304,-6.489130435,3.043478260869565,3945.7875457875457,128,128,9.129011527182046,35.711457218105465,44.84046874528751,482.5770691129052,579.7306728041974,-6.824427481,6.305343511450381,0.549618321,-0.070464768,0.3988005997001499,0.098950525
1.7089464855344543E12,2.402173913043478,-6.467391304,3.043478260869565,3973.626373626373,128,128,9.394707608,36.22243895798194,45.617146565574004,482.57620365335987,579.5790731405108,-5.72519084,6.458015267175572,0.366412214,-0.065967016,0.38530734632683655,0.11244377811094453
1.7089464855539856E12,2.402173913043478,-6.456521739,3.0760869565217392,3961.9047619047615,128,128,9.568809219456819,37.016642334060954,46.58545155351777,482.5770691129052,579.1164129,-5.480916031,6.412213740458015,0.549618321,-0.076461769,0.3748125937031484,0.11544227886056971
1.7089464855735168E12,2.391304347826087,-6.434782609,2.967391304347826,3973.626373626373,128,128,9.181299708044495,35.521849456053914,44.703149164098406,482.5818291404044,579.8283254895599,-4.717557252,5.648854961832061,0.8091603053435115,-0.065967016,0.38980509745127434,0.10494752623688156
1.708946485593048E12,2.3369565217391304,-6.413043478,3.0869565217391304,3975.0915750915747,128,128,9.181948802703477,35.71188994787812,44.893838750581594,482.5821176269195,579.7629833,-4.854961832,6.366412213740458,0.48854961832061067,-0.082458771,0.383808096,0.10644677661169415
1.7089464856125793E12,2.3478260869565215,-6.434782609,2.9239130434782608,3973.626373626373,128,128,9.174880883,35.732516733707996,44.90739761679144,482.5823339918058,579.7600263071092,-4.580152672,7.419847328244274,0.5343511450381679,-0.076461769,0.39280359820089955,0.10794602698650674
1.7089464856321106E12,2.380434782608696,-6.413043478,3.032608695652174,3972.161172161172,128,128,9.185843371,35.70337959568258,44.88922296633994,482.5847861271842,579.3989133118288,-3.145038168,7.083969465648854,0.6412213740458015,-0.088455772,0.39280359820089955,0.10194902548725637
1.7089464856516418E12,2.4456521739130435,-6.402173913,3.043478260869565,3966.300366300366,128,128,9.191829466,35.74102708590354,44.932856551749296,482.5860121948734,579.7494244276792,-3.86259542,6.916030534351145,1.0076335877862594,-0.062968516,0.40629685157421286,0.10344827586206896
1.708946485671173E12,2.391304347826087,-6.434782609,3.0978260869565215,3973.626373626373,128,128,9.206037426714591,35.74773439737969,44.953771824094275,482.5843533974115,579.7613244964272,-4.763358779,6.076335877862595,0.9465648854961831,-0.076461769,0.38980509745127434,0.12593703148425786
1.7089464856907043E12,2.369565217391304,-6.52173913,2.9891304347826084,3973.626373626373,128,128,9.211662913759103,35.75963446612769,44.97129737988679,482.5859400732446,579.7644978480932,-5.358778626,5.175572519083969,0.8396946564885496,-0.070464768,0.3913043478260869,0.11394302848575712
1.7089464857102356E12,2.3478260869565215,-6.52173913,2.9891304347826084,3961.9047619047615,128,128,9.249382526,35.76641389923262,45.015796424841454,482.58752674907765,579.7883701,-3.358778626,5.297709923664122,0.5190839694656488,-0.068965517,0.4047976011994003,0.10794602698650674
1.7089464857297668E12,2.391304347826087,-6.47826087,2.9891304347826084,3973.626373626373,128,128,9.281693015300396,35.77838609,45.060079104909796,482.58529097858565,579.7844034176354,-3.267175573,6.030534351145038,0.5954198473282443,-0.077961019,0.3913043478260869,0.11394302848575712
1.708946485749298E12,2.4239130434782608,-6.445652174,3.0217391304347827,3973.626373626373,128,128,9.357997698545182,35.78848311763801,45.14648081618319,482.5857237083583,579.8045974736926,-3.038167939,6.412213740458015,0.7480916030534351,-0.073463268,0.39280359820089955,0.094452774
1.7089464857688293E12,2.4130434782608696,-6.434782609,3.043478260869565,3973.626373626373,128,128,9.383600876760587,35.79382011816742,45.177420994928006,482.5859400732446,579.8193824075917,-3.404580153,6.030534351145038,1.099236641221374,-0.085457271,0.3913043478260869,0.10644677661169415
1.7089464857883606E12,2.402173913043478,-6.423913043,3,3973.626373626373,128,128,9.377254173428318,35.84293494736373,45.22018912079205,482.5893297897971,579.7790664,-2.335877863,5.7251908396946565,0.9007633587786259,-0.076461769,0.39730134932533734,0.10794602698650674
1.7089464858078918E12,2.391304347826087,-6.423913043,3.0217391304347827,3950.18315,128,128,9.27837542,35.87257693679058,45.15095235716729,482.5904116142287,579.7130030051474,-2.41221374,5.923664122137405,0.7480916030534351,-0.074962519,0.39430284857571213,0.11094452773613193
1.708946485827423E12,2.402173913043478,-6.434782609,3.0217391304347827,3973.626373626373,128,128,9.201349520844165,35.8284385,45.029788020823965,482.5922146549481,579.6941071384081,-2.366412214,6.198473282442748,0.8244274809160305,-0.062968516,0.37631184407796103,0.1169415292353823
1.7089464858469543E12,2.380434782608696,-6.413043478,3.032608695652174,3973.626373626373,128,128,9.143796461081084,35.794180726311296,44.93797718739238,482.5940176956675,579.6967756386729,-2.030534351,6.1679389312977095,0.7022900763358778,-0.061469265,0.4047976011994003,0.10194902548725637
1.7089464858664856E12,2.402173913043478,-6.456521739,3.0652173913043477,3961.9047619047615,128,128,9.141272204,35.775717589344694,44.91698979341862,482.59336860100854,579.6889143811362,-2,5.9541984732824424,0.8396946564885496,-0.059970015,0.39430284857571213,0.10344827586206896
1.7089464858860168E12,2.402173913043478,-6.456521739,3.043478260869565,3975.0915750915747,128,128,9.134637014226557,35.759418101241366,44.89405511546792,482.5932964793797,579.3911962975498,-2.229007634,6.564885496183206,0.9465648854961831,-0.059970015,0.3913043478260869,0.10644677661169415
1.708946485905548E12,2.391304347826087,-6.445652174,3.032608695652174,3973.626373626373,128,128,9.126703635,35.77139029161815,44.898093926679365,482.5938734524099,579.6754276365552,-2.091603053,6.244274809160305,0.9312977099236641,-0.085457271,0.383808096,0.10344827586206896
1.7089464859250793E12,2.380434782608696,-6.434782609,3,3972.161172161172,128,128,9.111413849760753,35.766774507376496,44.87818835713725,482.5954601,579.6755718798128,-1.938931298,7.374045801526718,0.5343511450381679,-0.068965517,0.4002998500749625,0.10494752623688156
1.7089464859446106E12,2.4239130434782608,-6.391304348,3.010869565217391,3972.161172161172,128,128,9.114226593283009,35.77413091351163,44.888357506794634,482.5966861959322,579.6904289353406,-1.221374046,6.534351145038167,0.9007633587786259,-0.082458771,0.383808096,0.11094452773613193
1.7089464859641418E12,2.391304347826087,-6.369565217,3.032608695652174,3969.230769230769,128,128,9.12071754,35.779107305897156,44.899824845769984,482.59704680407606,579.6871113404169,-2.122137405,7.099236641221374,0.6870229007633587,-0.077961019,0.38080959520239877,0.10344827586206896
1.708946485983673E12,2.4130434782608696,-6.402173913,3.043478260869565,3973.626373626373,128,128,9.117183580062816,35.77744850843531,44.89463208849813,482.5999316692271,579.6938187,-2.198473282,7.114503816793893,0.9923664122137404,-0.074962519,0.3988005997001499,0.098950525
1.7089464860032043E12,2.391304347826087,-6.434782609,3.032608695652174,3972.161172161172,128,128,9.129732743469804,35.781703684533085,44.91143642800289,482.6008692504012,579.6833610157205,-1.969465649,7.541984732824427,0.8091603053435115,-0.061469265,0.38980509745127434,0.10194902548725637
1.7089464860227356E12,2.380434782608696,-6.47826087,3.032608695652174,3958.974358974359,128,128,9.126847878318772,35.790935253016386,44.917783131335156,482.6008692504012,579.6932416788628,-2.27480916,8.183206106870228,0.916030534,-0.067466267,0.3988005997001499,0.10344827586206896
1.7089464860422668E12,2.380434782608696,-6.434782609,2.9891304347826084,3975.0915750915747,128,128,9.107519282,35.782713387335946,44.890232669142804,482.602528,579.6803319073119,-2.519083969,7.938931297709924,1.083969465648855,-0.065967016,0.39280359820089955,0.094452774
1.708946486061798E12,2.391304347826087,-6.380434783,3.010869565217391,3973.626373626373,128,128,9.115669025858525,35.78372309013881,44.89939211599733,482.6022395613479,579.6806925154558,-2.213740458,8.320610687022901,1.2061068702290076,-0.065967016,0.38980509745127434,0.10194902548725637
1.7089464860813293E12,2.369565217391304,-6.358695652,3.010869565217391,3973.626373626373,128,128,9.106004727602569,35.78091034661655,44.88691507421912,482.60425896695364,579.6754998,-3.007633588,7.770992366412213,1.282442748091603,-0.077961019,0.38830584707646176,0.11094452773613193
1.7089464861008606E12,2.380434782608696,-6.347826087,3.032608695652174,3973.626373626373,128,128,9.104922903170932,35.77550122445837,44.88042413,482.60159046668895,579.6682154736776,-4.076335878,7.786259541984733,1.0229007633587786,-0.076461769,0.38980509745127434,0.10194902548725637
1.7089464861203918E12,2.380434782608696,-6.391304348,3.032608695652174,3950.18315,128,128,9.099513781012748,35.77066907533039,44.870182856343135,482.5994268178257,579.6690088115942,-5.34351145,7.022900763358779,0.9770992366412213,-0.073463268,0.39730134932533734,0.10194902548725637
1.708946486139923E12,2.391304347826087,-6.413043478,3.032608695652174,3973.626373626373,128,128,9.098504078209887,35.76071629055933,44.859220368769215,482.6018068315753,579.3442451172168,-5.007633588,7.328244275,1.1755725190839694,-0.083958021,0.3793103448275862,0.097451274
1.7089464861594543E12,2.391304347826087,-6.434782609,3.0217391304347827,3973.626373626373,128,128,9.087902198779846,35.786824320176166,44.87472651895601,482.59675831756095,579.6664124329582,-4.641221374,7.3893129770992365,1.0687022900763359,-0.067466267,0.3988005997001499,0.098950525
1.7089464861789856E12,2.391304347826087,-6.456521739,3.043478260869565,3957.5091575091574,128,128,9.090426455786998,35.77990064381369,44.870327099600686,482.59747953384874,579.6600657296259,-4.671755725,7.6183206106870225,1.2671755725190839,-0.073463268,0.38530734632683655,0.10794602698650674
1.7089464861985168E12,2.391304347826087,-6.456521739,3.0652173913043477,3947.252747252747,128,128,9.084223996,35.81524024191383,44.899464237626106,482.5949552768416,579.6540796344376,-4.366412214,7.6183206106870225,1.282442748091603,-0.065967016,0.39280359820089955,0.10794602698650674
1.708946486218048E12,2.358695652173913,-6.456521739,3.032608695652174,3975.0915750915747,128,128,9.095114361657425,35.84444950156802,44.939563863225445,482.5932964793797,579.6300631320552,-4.916030534,7.541984732824427,0.9923664122137404,-0.062968516,0.39430284857571213,0.092953523
1.7089464862375793E12,2.3478260869565215,-6.434782609,3,3973.626373626373,128,128,9.114010228396682,35.85685442171746,44.97086465011414,482.59308011449343,579.6368425651601,-4.122137405,7.541984732824427,0.9007633587786259,-0.074962519,0.38830584707646176,0.10644677661169415
1.7089464862571106E12,2.380434782608696,-6.456521739,3.0652173913043477,3973.626373626373,128,128,9.127713337864082,35.86774479,44.99545812552668,482.590628,579.6275388750481,-4.351145038,7.099236641221374,0.42748091603053434,-0.091454273,0.39280359820089955,0.11544227886056971
1.7089464862766418E12,2.358695652173913,-6.489130435,3.043478260869565,3972.161172161172,128,128,9.092013131620066,35.81314871467933,44.90516184629939,482.5896182763122,579.6454971606132,-4.93129771,6.671755725190839,0.5038167938931297,-0.068965517,0.4002998500749625,0.10494752623688156
1.708946486296173E12,2.391304347826087,-6.445652174,3.0543478260869565,3973.626373626373,128,128,9.072251805,35.77427515676918,44.846526962104676,482.58731038419137,579.6568923779598,-5.679389313,6.809160305343511,0.5801526717557252,-0.08095952,0.39280359820089955,0.10494752623688156
1.7089464863157043E12,2.369565217391304,-6.456521739,3.0217391304347827,3973.626373626373,128,128,9.074631819,35.758769006582384,44.83340082566748,482.5843533974115,579.6645373,-5.221374046,6.7328244274809155,0.9465648854961831,-0.08095952,0.3748125937031484,0.10494752623688156
1.7089464863352356E12,2.402173913043478,-6.445652174,3,3956.043956043956,128,128,9.072756657,35.77470788654183,44.84746454327876,482.5862285597597,579.6538632695513,-4.580152672,7.312977099236641,0.7786259541984732,-0.068965517,0.39280359820089955,0.094452774
1.7089464863547668E12,2.391304347826087,-6.467391304,3.010869565217391,3973.626373626373,128,128,9.066121466889557,35.77954003566981,44.845661502559366,482.58543522184317,579.6597772431109,-3.709923664,7.343511450381679,0.7480916030534351,-0.062968516,0.3913043478260869,0.1169415292353823
1.708946486374298E12,2.391304347826087,-6.5,3.032608695652174,3973.626373626373,128,128,9.061722047534234,35.79122373953149,44.85294578706572,482.587094,579.6599936079972,-3.465648855,6.809160305343511,0.916030534,-0.070464768,0.4017991004497751,0.10344827586206896
1.7089464863938293E12,2.380434782608696,-6.489130435,3.010869565217391,3972.161172161172,128,128,9.301382219956187,36.213712240900065,45.515094460856254,482.5821176269195,579.1196583652089,-3.236641221,6.809160305343511,0.916030534,-0.067466267,0.383808096,0.088455772
1.7089464864133606E12,2.4130434782608696,-6.47826087,3.010869565217391,3973.626373626373,128,128,9.490557252235085,37.19535973016736,46.685916982402446,482.57988185642745,578.9856563789435,-3.022900763,7.175572519083969,0.42748091603053434,-0.070464768,0.3913043478260869,0.10344827586206896
1.7089464864328918E12,2.402173913043478,-6.445652174,2.9239130434782608,3970.6959706959706,128,128,9.115452660972197,35.61813183046959,44.73358449144179,482.5808915592303,579.7402649808246,-3.297709924,6.8396946564885495,0.5954198473282443,-0.062968516,0.3913043478260869,0.10644677661169415
1.708946486452423E12,2.3478260869565215,-6.413043478,3.0869565217391304,3973.626373626373,128,128,9.108817471124825,35.81019172789952,44.919009199024345,482.5815406538893,579.6837937454932,-4.320610687,4.916030534351145,0.38167938931297707,-0.085457271,0.39430284857571213,0.11394302848575712
1.7089464864719543E12,2.3478260869565215,-6.434782609,3,3973.626373626373,128,128,9.103047740822761,35.837381581947994,44.940429322770754,482.5790885185109,579.6705954874272,-4.580152672,7.557251908396946,0.4580152671755725,-0.061469265,0.39730134932533734,0.11244377811094453
1.7089464864914856E12,2.402173913043478,-6.456521739,2.9239130434782608,3956.043956043956,128,128,9.106293214117672,35.83831916312208,44.94461237723975,482.5744006126405,579.6711003388286,-3.083969466,7.801526717557252,0.3511450381679389,-0.085457271,0.38830584707646176,0.095952024
1.7089464865110168E12,2.4239130434782608,-6.434782609,2.934782608695652,3973.626373626373,128,128,9.124684229455498,35.84827194789314,44.972956177348635,482.5724533286635,579.6628784731482,-2.106870229,8.564885496183205,0.7175572519083969,-0.082458771,0.4017991004497751,0.098950525
1.708946486530548E12,2.4239130434782608,-6.423913043,3,3975.0915750915747,128,128,9.127785459492857,35.86226354387564,44.990049,482.5713715042319,579.6671336,-1.312977099,7.938931297709924,0.8549618320610687,-0.077961019,0.40629685157421286,0.11394302848575712
1.7089464865500793E12,2.391304347826087,-6.47826087,3.032608695652174,3973.626373626373,128,128,9.137233392862486,35.879356369895504,45.01658976275799,482.5698569500276,579.6744179337524,-1.633587786,7.557251908396946,1.2671755725190839,-0.067466267,0.37631184407796103,0.10344827586206896
1.7089464865696106E12,2.369565217391304,-6.52173913,3.043478260869565,3960.43956,128,128,9.182309410847356,35.88599155974288,45.068300970590236,482.56372661158167,579.6900683271966,-2.351145038,6.183206106870228,0.8702290076335878,-0.088455772,0.4002998500749625,0.10794602698650674
1.7089464865891418E12,2.4130434782608696,-6.489130435,3.043478260869565,3950.18315,128,128,9.209571386524605,35.893708574021886,45.103279960546494,482.5622120573774,579.6977132,-0.809160305,6.519083969465648,0.7786259541984732,-0.074962519,0.4017991004497751,0.10644677661169415
1.708946486608673E12,2.4239130434782608,-6.445652174,3.010869565217391,3973.626373626373,128,128,9.278447542005486,35.895944344513936,45.17439188651942,482.55990416525657,579.7288697634781,-1.450381679,7.557251908396946,0.48854961832061067,-0.068965517,0.38530734632683655,0.11544227886056971
1.7089464866282043E12,2.391304347826087,-6.423913043,3.010869565217391,3975.0915750915747,128,128,9.286669407685926,35.919960846896274,45.20663025,482.55774051639327,579.7192054652221,-0.610687023,7.633587786259541,0.6717557251908397,-0.055472264,0.39430284857571213,0.10644677661169415
1.7089464866477356E12,2.402173913043478,-6.445652174,3.0543478260869565,3954.5787545787543,128,128,9.252411634017424,35.98479819116571,45.237209825183136,482.55420655658327,579.3842726211873,-0.717557252,7.648854961832061,1.0534351145038168,-0.077961019,0.39430284857571213,0.095952024
1.7089464866672668E12,2.358695652173913,-6.434782609,3.0652173913043477,3975.0915750915747,128,128,9.189233087209832,35.994462489421664,45.18369558,482.55485565124224,579.6175861,-1.190839695,6.793893129770992,1.1908396946564885,-0.074962519,0.37631184407796103,0.11394302848575712
1.708946486686798E12,2.369565217391304,-6.402173913,3.0978260869565215,3973.626373626373,128,128,9.115019931199543,35.964604135108495,45.079624066308035,482.54850894790997,579.5995557,-0.824427481,7.175572519083969,1.099236641221374,-0.077961019,0.38830584707646176,0.11094452773613193
1.7089464867063293E12,2.4239130434782608,-6.434782609,3.108695652173913,3973.626373626373,128,128,9.069150575,35.92493724,44.99408781457994,482.54648954230424,579.6120327248613,-0.732824427,7.6183206106870225,1.1450381679389312,-0.082458771,0.3913043478260869,0.12143928035982009
1.7089464867258606E12,2.4239130434782608,-6.445652174,3.108695652173913,3973.626373626373,128,128,9.051913506020727,35.916859616858915,44.96877312287964,482.54382104203955,579.6066236,-0.442748092,8.167938931,1.129770992366412,-0.085457271,0.39430284857571213,0.098950525
1.7089464867453918E12,2.391304347826087,-6.47826087,3.119565217391304,3973.626373626373,128,128,9.044773464771923,35.921836009244444,44.966609474016366,482.5458404476453,579.6074890622484,-0.030534351,8.152671756,1.2213740458015268,-0.077961019,0.3913043478260869,0.098950525
1.708946486764923E12,2.3260869565217392,-6.510869565,3.032608695652174,3973.626373626373,128,128,9.054149276512776,35.918590535949534,44.97273981246231,482.54115254177486,579.5995557,-0.27480916,7.145038167938931,1.297709923664122,-0.08095952,0.41079460269865065,0.10194902548725637
1.7089464867844543E12,2.358695652173913,-6.47826087,3.1739130434782608,3973.626373626373,128,128,9.040157680530273,35.93460153753776,44.97475921806803,482.5390610145403,579.6102296841419,0.16793893129770993,6.961832061068702,1.083969465648855,-0.070464768,0.38080959520239877,0.11394302848575712
1.7089464868039856E12,2.380434782608696,-6.456521739,3.0869565217391304,3953.113553113553,128,128,9.039364342613739,35.94592463325556,44.985288975869295,482.53545493310156,579.6012144805449,0.366412214,7.022900763358779,0.7022900763358778,-0.070464768,0.3913043478260869,0.092953523
1.7089464868235168E12,2.369565217391304,-6.423913043,3.152173913043478,3975.0915750915747,128,128,9.040878897,35.95320891776191,44.99408781457994,482.5343731086699,579.6103739273995,1.1450381679389312,7.1603053435114505,0.7022900763358778,-0.095952024,0.39280359820089955,0.1199400299850075
1.708946486843048E12,2.402173913043478,-6.402173913,3.108695652173913,3973.626373626373,128,128,9.033378247425349,35.97073447355443,45.004112720979776,482.5308391488599,579.6208315635719,0.5190839694656488,7.755725190839694,1.0229007633587786,-0.070464768,0.38830584707646176,0.11394302848575712
1.7089464868625793E12,2.380434782608696,-6.402173913,3.1630434782608696,3973.626373626373,128,128,9.031142476933299,35.981769082757125,45.01291155969042,482.5276657971938,579.6077054271348,1.3587786259541985,6.870229007633587,1.2671755725190839,-0.068965517,0.39280359820089955,0.11544227886056971
1.7089464868821106E12,2.380434782608696,-6.456521739,3.1630434782608696,3973.626373626373,128,128,9.028473976668595,35.97967755552263,45.00815153219122,482.5287476216254,579.6056138999003,1.8015267175572518,6.992366412,1.1908396946564885,-0.065967016,0.38980509745127434,0.097451274
1.7089464869016418E12,2.369565217391304,-6.456521739,3.2282608695652173,3972.161172161172,128,128,9.049317127384798,35.94635736302821,44.99567449041301,482.5245645671564,579.2654882985936,1.6335877862595418,7.145038167938931,1.129770992366412,-0.082458771,0.38830584707646176,0.10644677661169415
1.708946486921173E12,2.358695652173913,-6.489130435,3.25,3973.626373626373,128,128,9.026670936,35.984004853249175,45.01067578919837,482.5239875941262,579.5960217,1.2671755725190839,7.236641221374046,1.0076335877862594,-0.065967016,0.39730134932533734,0.11244377811094453
1.7089464869407043E12,2.358695652173913,-6.434782609,3.2065217391304346,3973.626373626373,128,128,9.015924813261606,35.98580789396857,45.001732707230175,482.51994878291475,579.5826792219495,0.6717557251908397,7.938931297709924,1.0687022900763359,-0.065967016,0.4047976011994003,0.089955022
1.7089464869602356E12,2.391304347826087,-6.391304348,3.260869565217391,3953.113553113553,128,128,9.019963624473052,35.980759379954264,45.000723004427314,482.52211243177805,579.5900356280847,0.7786259541984732,7.6183206106870225,1.282442748091603,-0.082458771,0.3988005997001499,0.095952024
1.7089464869797668E12,2.391304347826087,-6.423913043,3.2391304347826084,3975.0915750915747,128,128,9.020756962389585,35.971167203327084,44.99192416571667,482.52052575594496,579.5864295466458,0.549618321,7.175572519083969,1.083969465648855,-0.065967016,0.38980509745127434,0.10494752623688156
1.708946486999298E12,2.3369565217391304,-6.423913043,3.25,3973.626373626373,128,128,9.025661233146339,35.976648447114044,45.00230968026038,482.5182899854529,579.5741689,1.2519083969465647,6.946564885496183,1.1755725190839694,-0.083958021,0.39730134932533734,0.10794602698650674
1.7089464870188293E12,2.358695652173913,-6.402173913,3.293478260869565,3973.626373626373,128,128,9.031503085077178,35.97960543389385,45.01110851897103,482.5150445,579.5836889247524,0.41221374045801523,6.519083969465648,0.8244274809160305,-0.068965517,0.39730134932533734,0.10794602698650674
1.7089464870383606E12,2.380434782608696,-6.423913043,3.282608695652174,3975.0915750915747,128,128,9.026815179206752,35.98292302881754,45.00973820802429,482.51403480935517,579.5717888560043,-0.442748092,6.183206106870228,0.4427480916030534,-0.077961019,0.38830584707646176,0.11094452773613193
1.7089464870578918E12,2.380434782608696,-6.402173913,3.3043478260869565,3973.626373626373,128,128,9.007919312467493,35.992226718929615,45.00014603139711,482.5141069309839,579.5877277359639,-0.580152672,6.1679389312977095,0.3969465648854962,-0.08095952,0.4047976011994003,0.10194902548725637
1.708946487077423E12,2.369565217391304,-6.423913043,3.3043478260869565,3975.0915750915747,128,128,9.026526692691649,35.98371636673407,45.01024305942572,482.5144675391278,579.5782798025942,-0.519083969,5.893129770992366,0.2900763358778626,-0.085457271,0.39430284857571213,0.095952024
1.7089464870969543E12,2.369565217391304,-6.434782609,3.293478260869565,3973.626373626373,128,128,9.01844907,35.989125488892256,45.007574559161014,482.5138905660976,579.5828234652071,-0.549618321,5.877862595419847,0.21374045801526717,-0.077961019,0.40629685157421286,0.095952024
1.7089464871164856E12,2.380434782608696,-6.456521739,3.3152173913043477,3951.6483516483513,128,128,9.025012138487357,36.010329247752345,45.03534139,482.5113663090904,579.5636391119527,-0.717557252,5.572519083969466,0.183206107,-0.070464768,0.3913043478260869,0.10344827586206896
1.7089464871360168E12,2.391304347826087,-6.434782609,3.3369565217391304,3975.0915750915747,128,128,9.033161882539021,36.06204045558459,45.095202338123606,482.5105008495451,579.5366656227906,-0.534351145,5.648854961832061,0.7480916030534351,-0.082458771,0.39430284857571213,0.095952024
1.708946487155548E12,2.4130434782608696,-6.413043478,3.3369565217391304,3973.626373626373,128,128,9.079608211,36.05490041433578,45.13450862580641,482.51071721443145,579.1914915074697,-0.854961832,5.9541984732824424,0.6870229007633587,-0.076461769,0.41079460269865065,0.10494752623688156
1.7089464871750793E12,2.380434782608696,-6.423913043,3.369565217391304,3972.161172161172,128,128,9.068934210411813,36.04877007588984,45.11770428630165,482.51158267397676,579.5414256502897,-1.419847328,5.679389312977099,0.7175572519083969,-0.074962519,0.3988005997001499,0.10644677661169415
1.7089464871946106E12,2.369565217391304,-6.413043478,3.3152173913043477,3954.5787545787543,128,128,9.020035746101827,35.96965264912279,44.98968839522462,482.5094911467423,579.5584463546809,-1.832061069,5.435114503816794,0.6564885496183206,-0.073463268,0.41079460269865065,0.10494752623688156
1.7089464872141418E12,2.369565217391304,-6.413043478,3.3260869565217392,3973.626373626373,128,128,9.013616921,35.95962774272296,44.97324466386374,482.50718325462145,579.5625573,-1.511450382,5.526717557251908,0.6717557251908397,-0.095952024,0.4047976011994003,0.097451274
1.708946487233673E12,2.402173913043478,-6.413043478,3.3260869565217392,3973.626373626373,128,128,9.016213299776709,35.956742877571926,44.972956177348635,482.50617355181856,579.5772700997913,-1.740458015,5.511450381679389,0.33587786259541985,-0.073463268,0.4002998500749625,0.10194902548725637
1.7089464872532043E12,2.402173913043478,-6.423913043,3.3478260869565215,3973.626373626373,128,128,9.011886002050161,35.95782470200356,44.969710704053725,482.5079766,579.5645766931268,-1.984732824,5.862595419847328,0.8244274809160305,-0.077961019,0.39430284857571213,0.088455772
1.7089464872727356E12,2.391304347826087,-6.434782609,3.3369565217391304,3950.18315,128,128,9.011453272277507,35.963089580904196,44.97454285,482.50480324087187,579.5603215,-1.969465649,6.1679389312977095,0.7175572519083969,-0.091454273,0.4002998500749625,0.10494752623688156
1.7089464872922668E12,2.402173913043478,-6.434782609,3.3369565217391304,3973.626373626373,128,128,9.014770867201193,36.08721090402734,45.10198177122853,482.50588506530346,579.5830398300934,-1.923664122,6.305343511450381,0.33587786259541985,-0.059970015,0.40629685157421286,0.11394302848575712
1.708946487311798E12,2.380434782608696,-6.423913043,3.369565217391304,3972.161172161172,128,128,9.396582769940231,36.71474119600549,46.11132396594572,482.50191837572083,579.2308699167812,-1.618320611,6.335877863,0.9007633587786259,-0.067466267,0.39430284857571213,0.092953523
1.7089464873313293E12,2.4239130434782608,-6.423913043,3.3369565217391304,3972.161172161172,128,128,9.325398722338525,36.42755287022029,45.752951592558816,482.50545233553083,579.3044339781326,-1.86259542,6.549618320610687,1.083969465648855,-0.088455772,0.38980509745127434,0.10194902548725637
1.7089464873508606E12,2.402173913043478,-6.402173913,3.3478260869565215,3973.626373626373,128,128,9.082781563136765,35.90423833182315,44.987019894959914,482.5017020108345,579.6120327248613,-1.648854962,6.702290076335878,1.0687022900763359,-0.076461769,0.39730134932533734,0.10494752623688156
1.7089464873703918E12,2.4130434782608696,-6.391304348,3.4456521739130435,3951.6483516483513,128,128,9.068862088783037,36.00816559888907,45.07702768767211,482.50292807852367,579.5991950749392,-1.145038168,7.0534351145038165,1.3893129770992365,-0.061469265,0.41079460269865065,0.10794602698650674
1.708946487389923E12,2.380434782608696,-6.434782609,3.369565217391304,3973.626373626373,128,128,9.068789967154261,35.99006307006635,45.05885303722061,482.50278383526614,579.6032338861506,-2.41221374,7.633587786259541,1.297709923664122,-0.067466267,0.3913043478260869,0.10344827586206896
1.7089464874094543E12,2.391304347826087,-6.402173913,3.3369565217391304,3973.626373626373,128,128,9.081122765674921,35.98573577,45.06685853801472,482.50415414621284,579.3284504805149,-1.236641221,8.366412213740457,1.3129770992366412,-0.076461769,0.39280359820089955,0.097451274
1.7089464874289856E12,2.358695652173913,-6.380434783,3.3369565217391304,3951.6483516483513,128,128,9.077156076092253,36.008814693548054,45.085970769640305,482.5035050515539,579.6167206307317,-0.519083969,7.3893129770992365,1.465648854961832,-0.082458771,0.39430284857571213,0.098950525
1.7089464874485168E12,2.3369565217391304,-6.391304348,3.4239130434782608,3973.626373626373,128,128,9.099081051240093,36.008958936805605,45.10803999,482.5008365512892,579.6167927523604,-1.34351145,8.229007633587786,1.450381679389313,-0.083958021,0.4002998500749625,0.10494752623688156
1.708946487468048E12,2.380434782608696,-6.445652174,3.4456521739130435,3973.626373626373,128,128,9.13665642,36.00968015309336,45.14633657292564,482.5001153350014,579.6355443758422,-2.167938931,7.145038167938931,1.6335877862595418,-0.067466267,0.40629685157421286,0.092953523
1.7089464874875793E12,2.358695652173913,-6.445652174,3.434782608695652,3973.626373626373,128,128,9.152234691647852,36.02929723612037,45.181531927768226,482.50004321337263,579.6581905672778,-2.167938931,6.442748091603053,1.2519083969465647,-0.085457271,0.39430284857571213,0.10344827586206896
1.7089464875071106E12,2.358695652173913,-6.423913043,3.4130434782608696,3975.0915750915747,128,128,9.210725332585017,36.04148579138348,45.25221112,482.49607652378995,579.6862458808715,-2.442748092,6.106870229007633,1.1603053435114503,-0.073463268,0.4002998500749625,0.10794602698650674
1.7089464875266418E12,2.380434782608696,-6.423913043,3.4130434782608696,3953.113553113553,128,128,9.268350513976875,36.04249549418634,45.31084600816322,482.49441772632815,579.6865343673867,-2.427480916,6.244274809160305,0.732824427,-0.074962519,0.40929535232383807,0.098950525
1.708946487546173E12,2.369565217391304,-6.347826087,3.402173913043478,3975.0915750915747,128,128,9.284361516,36.097235810427165,45.38159732599227,482.49521106424464,579.6785288665925,-1.877862595,6.106870229007633,0.7480916030534351,-0.076461769,0.39280359820089955,0.10494752623688156
1.7089464875657043E12,2.369565217391304,-6.369565217,3.402173913043478,3973.626373626373,128,128,9.249021917464962,36.135099665534455,45.38412158299942,482.4962928886763,579.6185957930799,-2.488549618,6.213740458015267,0.6412213740458015,-0.082458771,0.3988005997001499,0.095952024
1.7089464875852356E12,2.369565217391304,-6.391304348,3.4239130434782608,3951.6483516483513,128,128,9.177909991492033,36.115049852734785,45.29295984422682,482.49751895636547,579.5574367,-2.290076336,6.381679389312977,0.7786259541984732,-0.076461769,0.41079460269865065,0.10194902548725637
1.7089464876047668E12,2.369565217391304,-6.347826087,3.434782608695652,3973.626373626373,128,128,9.085810671545348,36.062401063728466,45.14821173527381,482.50119715943305,579.5455366,-1.923664122,6.6106870229007635,0.6564885496183206,-0.074962519,0.3988005997001499,0.085457271
1.708946487624298E12,2.380434782608696,-6.413043478,3.4456521739130435,3973.626373626373,128,128,9.075857886774289,36.032109979642634,45.10796786641692,482.4988892673122,579.5404880691157,-2.580152672,6.473282442748092,0.6412213740458015,-0.088455772,0.4002998500749625,0.089955022
1.7089464876438293E12,2.402173913043478,-6.423913043,3.4782608695652173,3972.161172161172,128,128,9.063452966624853,36.02533054653771,45.08878351316256,482.49607652378995,579.552316,-2.900763359,6.198473282442748,0.7480916030534351,-0.076461769,0.39280359820089955,0.086956522
1.7089464876633606E12,2.358695652173913,-6.434782609,3.4782608695652173,3973.626373626373,128,128,9.070304521358553,35.996626138284945,45.066930659643496,482.4970141049641,579.2129837528448,-3.603053435,6.412213740458015,0.5190839694656488,-0.08095952,0.41079460269865065,0.094452774
1.7089464876828918E12,2.391304347826087,-6.456521739,3.358695652173913,3953.113553113553,128,128,9.067347534578746,36.026628735855674,45.09397627043442,482.49751895636547,579.5482050833947,-3.06870229,6.152671755725191,0.5801526717557252,-0.077961019,0.40629685157421286,0.11094452773613193
1.708946487702423E12,2.391304347826087,-6.413043478,3.467391304347826,3944.322344322344,128,128,9.057538993065238,36.02922511,45.08676410755684,482.5001153350014,579.5192121886269,-3.282442748,6.931297709923664,0.6564885496183206,-0.082458771,0.4017991004497751,0.088455772
1.7089464877219543E12,2.369565217391304,-6.391304348,3.4239130434782608,3973.626373626373,128,128,9.068501480639158,36.03297543918794,45.10147692,482.49586015890367,579.5127212420371,-3.022900763,7.083969465648854,0.6564885496183206,-0.082458771,0.3913043478260869,0.095952024
1.7089464877414856E12,2.358695652173913,-6.358695652,3.4565217391304346,3950.18315,128,128,9.070665129502432,36.036365155740405,45.107030285242836,482.4971583482216,579.5221691754066,-3.404580153,6.702290076335878,0.6564885496183206,-0.074962519,0.40629685157421286,0.092953523
1.7089464877610168E12,2.358695652173913,-6.358695652,3.4456521739130435,3975.0915750915747,128,128,9.058188088,36.04523611607983,45.103424203804046,482.49614864541877,579.5255588919591,-3.877862595,6.671755725190839,1.114503816793893,-0.076461769,0.4077961019490255,0.089955022
1.708946487780548E12,2.369565217391304,-6.423913043,3.4565217391304346,3972.161172161172,128,128,9.072251805,36.036870007141836,45.10912181247733,482.4965813751914,579.5290928517691,-4.030534351,6.473282442748092,0.549618321,-0.074962519,0.40629685157421286,0.10344827586206896
1.7089464878000793E12,2.402173913043478,-6.456521739,3.4239130434782608,3970.6959706959706,128,128,9.066626318290988,36.04429853490574,45.11092485319673,482.49694198333526,579.5284437571102,-3.954198473,6.320610687,0.9312977099236641,-0.062968516,0.38830584707646176,0.098950525
1.7089464878196106E12,2.402173913043478,-6.445652174,3.4565217391304346,3973.626373626373,128,128,9.075425157001634,36.0268451,45.10227025774363,482.4962928886763,579.5240443377548,-4.259541985,7.374045801526718,0.9770992366412213,-0.083958021,0.4077961019490255,0.10494752623688156
1.7089464878391418E12,2.380434782608696,-6.434782609,3.4456521739130435,3973.626373626373,128,128,9.070665129502432,36.03737485854327,45.10803999,482.49737471310794,579.5158224720743,-4.030534351,7.908396946564885,0.8396946564885496,-0.073463268,0.39730134932533734,0.097451274
1.708946487858673E12,2.358695652173913,-6.423913043,3.4239130434782608,3973.626373626373,128,128,9.068934210411813,36.02359962744709,45.09253384,482.4989614,579.5125769987794,-3.938931298,8,1.0076335877862594,-0.085457271,0.40629685157421286,0.095952024
1.7089464878782043E12,2.391304347826087,-6.402173913,3.4130434782608696,3973.626373626373,128,128,9.07600213,36.01999355,45.09599567604014,482.4977353212518,579.5174091479074,-4.625954198,8.106870229007633,1.0381679389312977,-0.077961019,0.40929535232383807,0.098950525
1.7089464878977356E12,2.402173913043478,-6.391304348,3.4130434782608696,3950.18315,128,128,9.076723346319598,36.016171099683184,45.09289444600278,482.49975472685753,579.5095478903709,-5.648854962,8,1.0687022900763359,-0.082458771,0.3913043478260869,0.095952024
1.7089464879172668E12,2.402173913043478,-6.369565217,3.4130434782608696,3975.0915750915747,128,128,9.088334929,35.98371636673408,45.07205129528658,482.4964371319339,579.1724513974729,-5.603053435,8.274809160305344,1.2366412213740459,-0.083958021,0.4077961019490255,0.094452774
1.708946487936798E12,2.391304347826087,-6.413043478,3.3478260869565215,3973.626373626373,128,128,9.072323926964275,36.01595473479686,45.08827866176113,482.4942734830706,579.4984411595394,-5.358778626,8.061068702290076,1.099236641221374,-0.073463268,0.38530734632683655,0.11544227886056971
1.7089464879563293E12,2.369565217391304,-6.413043478,3.369565217391304,3973.626373626373,128,128,9.090859185559653,35.99503946245188,45.08589864801153,482.49679774007774,579.5166158099909,-5.770992366,7.312977099236641,1.0534351145038168,-0.082458771,0.3913043478260869,0.098950525
1.7089464879758606E12,2.358695652173913,-6.423913043,3.369565217391304,3973.626373626373,128,128,9.079824576356957,36.00643467979845,45.08625925615541,482.4989614,579.5050042,-5.72519084,7.801526717557252,0.8549618320610687,-0.076461769,0.39730134932533734,0.10494752623688156
1.7089464879953918E12,2.380434782608696,-6.434782609,3.4130434782608696,3958.974358974359,128,128,9.071242102532638,36.00773286911642,45.07897497164905,482.49780744288057,579.5244049458987,-5.58778626,7.832061069,0.8549618320610687,-0.077961019,0.4017991004497751,0.088455772
1.708946488014923E12,2.391304347826087,-6.423913043,3.358695652173913,3945.7875457875457,128,128,9.081916103591455,36.008093477260296,45.09000958085175,482.49694198333526,579.5153176206729,-6.045801527,7.862595419847328,1.2061068702290076,-0.073463268,0.4047976011994003,0.089955022
1.7089464880344543E12,2.369565217391304,-6.413043478,3.369565217391304,3973.626373626373,128,128,9.072323926964275,36.015810491539305,45.08813441850358,482.4957159156461,579.5236837,-6.259541985,7.358778625954198,1.1908396946564885,-0.082458771,0.3988005997001499,0.085457271
1.7089464880539856E12,2.3478260869565215,-6.434782609,3.3260869565217392,3948.7179487179483,128,128,9.082637319879213,35.99994373320863,45.08258105308784,482.5043705110992,579.5211594726038,-5.603053435,7.1603053435114505,0.9465648854961831,-0.083958021,0.38980509745127434,0.10194902548725637
1.7089464880735168E12,2.3478260869565215,-6.402173913,3.3369565217391304,3975.0915750915747,128,128,9.072828778365706,36.00304496324599,45.075873741611694,482.50328868666753,579.5246213,-5.648854962,6.748091603053435,0.732824427,-0.077961019,0.40629685157421286,0.098950525
1.708946488093048E12,2.369565217391304,-6.380434783,3.3260869565217392,3973.626373626373,128,128,9.101605308247246,36.04516399445105,45.146769302698296,482.5071111329927,579.5172649046499,-6.396946565,6.580152671755725,1.0076335877862594,-0.08095952,0.39730134932533734,0.10194902548725637
1.7089464881125793E12,2.3369565217391304,-6.391304348,3.3478260869565215,3972.161172161172,128,128,9.111197484874426,36.037591223429594,45.14878870830402,482.5073275,579.5362328930179,-6.824427481,6.519083969465648,0.7175572519083969,-0.068965517,0.39280359820089955,0.094452774
1.7089464881321106E12,2.380434782608696,-6.413043478,3.3260869565217392,3948.7179487179483,128,128,9.138820068695553,36.03030693892324,45.16912700761879,482.5093469034847,579.5178418776801,-7.664122137,6.870229007633587,1.297709923664122,-0.073463268,0.4047976011994003,0.10494752623688156
1.7089464881516418E12,2.380434782608696,-6.423913043,3.3478260869565215,3972.161172161172,128,128,9.097854983550905,35.99828493574679,45.09613991929769,482.5123760118933,579.5346462171849,-8.595419847,6.061068702290076,1.297709923664122,-0.092953523,0.3988005997001499,0.10644677661169415
1.708946488171173E12,2.3369565217391304,-6.413043478,3.2391304347826084,3948.7179487179483,128,128,9.098720443096214,35.930490604697546,45.02921104779376,482.5146117823854,579.2940484635889,-8.473282443,6.091603053435114,0.916030534,-0.076461769,0.39730134932533734,0.094452774
1.7089464881907043E12,2.3369565217391304,-6.434782609,3.1956521739130435,3972.161172161172,128,128,9.083358536,35.95429074219356,45.037649278360526,482.51699179613496,579.5495753943414,-8.320610687,6.213740458015267,0.7175572519083969,-0.059970015,0.38830584707646176,0.095952024
1.7089464882102356E12,2.358695652173913,-6.445652174,3.25,3948.7179487179483,128,128,9.086676131090657,35.95407437730723,45.040750508397885,482.5173524042788,579.5438777856682,-8.625954198,5.938931297709924,0.8549618320610687,-0.070464768,0.3913043478260869,0.095952024
1.7089464882297668E12,2.358695652173913,-6.467391304,3.2065217391304346,3975.0915750915747,128,128,9.079968819614509,35.95306467450437,45.033033494118875,482.52023726942986,579.5520996513486,-7.908396947,6.061068702290076,0.5801526717557252,-0.068965517,0.38980509745127434,0.10494752623688156
1.708946488249298E12,2.369565217391304,-6.467391304,3.1739130434782608,3973.626373626373,128,128,9.081916103591455,35.957391972230916,45.03930807582237,482.5198767,579.5599609088852,-7.312977099,5.694656488549618,0.48854961832061067,-0.082458771,0.40629685157421286,0.1169415292353823
1.7089464882688293E12,2.369565217391304,-6.445652174,3.2065217391304346,3972.161172161172,128,128,9.355184955022926,36.43245714097704,45.78764209599997,482.5228336480658,579.3847054,-6.824427481,6.045801526717557,0.7633587786259541,-0.070464768,0.3988005997001499,0.098950525
1.7089464882883606E12,2.358695652173913,-6.434782609,3.25,3973.626373626373,128,128,9.649946051829584,37.211442853384355,46.86138890521394,482.5284591351103,578.8923309913076,-7.465648855,5.770992366412213,0.2595419847328244,-0.074962519,0.4017991004497751,0.10644677661169415
1.7089464883078918E12,2.391304347826087,-6.47826087,3.0869565217391304,3973.626373626373,128,128,9.155335922,35.766990872262824,44.92232679394803,482.5346616,579.6319382944034,-6.381679389,5.251908396946565,0.47328244274809156,-0.082458771,0.39430284857571213,0.11394302848575712
1.708946488327423E12,2.358695652173913,-6.423913043,3.1956521739130435,3973.626373626373,128,128,9.152451057,35.956598634314375,45.10904969084856,482.53357977075336,579.5895307766832,-6.351145038,6.564885496183206,0.366412214,-0.082458771,0.3913043478260869,0.10644677661169415
1.7089464883469543E12,2.3478260869565215,-6.467391304,3.0652173913043477,3973.626373626373,128,128,9.142137664,35.95219921495906,45.09433688,482.5332191626095,579.5873671278199,-6.824427481,6.641221374045801,0.47328244274809156,-0.073463268,0.3823088455772114,0.097451274
1.7089464883664856E12,2.358695652173913,-6.402173913,3.1739130434782608,3948.7179487179483,128,128,9.156489867745623,35.93351971310612,45.09000958085175,482.5371858521922,579.5988344667953,-4.030534351,7.770992366412213,0.33587786259541985,-0.08095952,0.4002998500749625,0.10194902548725637
1.7089464883860168E12,2.402173913043478,-6.358695652,3.152173913043478,3975.0915750915747,128,128,9.167452355319543,35.93186091564428,45.099313270963826,482.5371858521922,579.6013587238025,-5.419847328,6.198473282442748,0.47328244274809156,-0.083958021,0.4047976011994003,0.094452774
1.708946488405548E12,2.369565217391304,-6.413043478,3.152173913043478,3973.626373626373,128,128,9.185627005771043,35.94001065969594,45.12563766546699,482.5400707173432,579.6004932642571,-6.946564885,5.832061069,0.5801526717557252,-0.085457271,0.40929535232383807,0.10644677661169415
1.7089464884250793E12,2.358695652173913,-6.47826087,3.119565217391304,3972.161172161172,128,128,9.202503466904577,35.94044339,45.14294685637318,482.5424507310928,579.6075611838771,-6.13740458,4.564885496183206,0.33587786259541985,-0.095952024,0.4047976011994003,0.10794602698650674
1.7089464884446106E12,2.3369565217391304,-6.52173913,3.108695652173913,3948.7179487179483,128,128,9.237193970345732,35.95551680988274,45.192710780228474,482.54136890666115,579.6448480659543,-4.885496183,4.534351145038168,0.030534351145038167,-0.073463268,0.3793103448275862,0.10794602698650674
1.7089464884641418E12,2.358695652173913,-6.5,3.0652173913043477,3947.252747252747,128,128,9.271595987271786,35.95306467450436,45.22466066177615,482.5412967850324,579.6577578375051,-5.465648855,4.702290076335878,-0.030534351,-0.077961019,0.3988005997001499,0.10644677661169415
1.708946488483673E12,2.380434782608696,-6.413043478,3.0652173913043477,3973.626373626373,128,128,9.308305896318663,35.962440486245214,45.27074638256388,482.54410952855466,579.6788894747365,-5.20610687,4.8396946564885495,0.1984732824427481,-0.077961019,0.3988005997001499,0.098950525
1.7089464885032043E12,2.369565217391304,-6.380434783,3.0760869565217392,3972.161172161172,128,128,9.385331795851206,35.98018240692406,45.365514202775266,482.5460568125316,579.6911501516283,-6.946564885,4.091603053435114,0.549618321,-0.077961019,0.40629685157421286,0.10644677661169415
1.7089464885227356E12,2.380434782608696,-6.358695652,3.0978260869565215,3948.7179487179483,128,128,9.377831146458524,36.023383262560756,45.40121440901928,482.5466337855618,579.6467953499312,-7.648854962,3.480916030534351,0.5343511450381679,-0.08095952,0.4077961019490255,0.10794602698650674
1.7089464885422668E12,2.391304347826087,-6.402173913,3.108695652173913,3975.0915750915747,128,128,9.277654204088952,36.069468983348486,45.34712318743744,482.5498792588567,579.5810925461165,-8.106870229,3.6488549618320607,0.091603053,-0.083958021,0.4077961019490255,0.089955022
1.708946488561798E12,2.4130434782608696,-6.434782609,3.0978260869565215,3973.626373626373,128,128,9.221038725499955,36.00960803146458,45.23064675696454,482.55161017794734,579.5652257877858,-8.259541985,4.427480916030534,0.1984732824427481,-0.085457271,0.39430284857571213,0.10344827586206896
1.7089464885813293E12,2.4347826086956523,-6.445652174,3.0652173913043477,3972.161172161172,128,128,9.170120855584248,35.95789682363234,45.12801767921659,482.5501677453718,579.5593839,-7.236641221,4.305343511450381,0.10687022900763359,-0.077961019,0.383808096,0.098950525
1.7089464886008606E12,2.402173913043478,-6.47826087,3.043478260869565,3973.626373626373,128,128,9.149998921155802,35.95140587704252,45.101404798198324,482.5540623133257,579.5544796650981,-6.702290076,5.022900763358779,0.366412214,-0.065967016,0.38530734632683655,0.10794602698650674
1.7089464886203918E12,2.4130434782608696,-6.489130435,3.0652173913043477,3972.161172161172,128,128,9.149638313011923,35.95270406636048,45.10234237937241,482.55629808381775,579.5620524361196,-5.954198473,4.9465648854961835,0.045801527,-0.08095952,0.39280359820089955,0.10194902548725637
1.708946488639923E12,2.4347826086956523,-6.543478261,2.9891304347826084,3973.626373626373,128,128,9.138459460551674,35.95219921495906,45.09065867551073,482.55687505684796,579.5623409226348,-5.923664122,5.679389312977099,-0.076335878,-0.070464768,0.38080959520239877,0.098950525
1.7089464886594543E12,2.4456521739130435,-6.5,3,3972.161172161172,128,128,9.152306813276628,35.935683361969396,45.08799017524603,482.55932719222636,579.5584463546809,-3.770992366,5.7251908396946565,0.1984732824427481,-0.070464768,0.383808096,0.098950525
1.7089464886789856E12,2.402173913043478,-6.434782609,3,3948.7179487179483,128,128,9.15483107,35.92616330697099,45.080994377254775,482.5607696248019,579.2469530399982,-3.267175573,7.007633587786259,0.2900763358778626,-0.089955022,0.39430284857571213,0.092953523
1.7089464886985168E12,2.391304347826087,-6.402173913,3.010869565217391,3975.0915750915747,128,128,9.136079446802073,35.955156201738866,45.09123564854094,482.5621399357486,579.5837610463811,-5.328244275,6.458015267175572,1.0534351145038168,-0.076461769,0.39280359820089955,0.11244377811094453
1.708946488718048E12,2.402173913043478,-6.402173913,3,3973.626373626373,128,128,9.153244394450713,35.96042108063949,45.11366547509021,482.5638708548392,579.5981853721363,-3.938931298,6.625954198473282,0.9618320610687022,-0.077961019,0.39430284857571213,0.11394302848575712
1.7089464887375793E12,2.4130434782608696,-6.445652174,2.9891304347826084,3973.626373626373,128,128,9.134492770969006,35.96518111,45.099673879107705,482.5635823683241,579.6043878,-4.93129771,6.8396946564885495,1.0229007633587786,-0.062968516,0.38080959520239877,0.10644677661169415
1.7089464887571106E12,2.4130434782608696,-6.489130435,2.9782608695652173,3975.0915750915747,128,128,9.130742446272665,35.96388291882074,45.09462537,482.5689914904823,579.5991950749392,-4.458015267,7.007633587786259,0.9618320610687022,-0.074962519,0.38830584707646176,0.11094452773613193
1.7089464887766418E12,2.391304347826087,-6.47826087,2.9782608695652173,3975.0915750915747,128,128,9.140046136384742,35.95977198598052,45.09981812236526,482.5700011932852,579.5910453308875,-3.648854962,6.809160305343511,1.2671755725190839,-0.076461769,0.38530734632683655,0.12293853073463268
1.708946488796173E12,2.369565217391304,-6.467391304,3,3973.626373626373,128,128,9.136800663089831,35.95169436355763,45.08849502664746,482.5718763556333,579.5870786413049,-3.709923664,6.748091603053435,1.4045801526717556,-0.068965517,0.39280359820089955,0.11544227886056971
1.7089464888157043E12,2.380434782608696,-6.467391304,3,3973.626373626373,128,128,9.138459460551674,35.92803846931917,45.06649792987084,482.5743284910117,579.6065514810743,-2.824427481,6.244274809160305,0.9770992366412213,-0.070464768,0.40629685157421286,0.088455772
1.7089464888352356E12,2.380434782608696,-6.445652174,3.010869565217391,3948.7179487179483,128,128,9.125405445743256,35.934457294280215,45.05986274002347,482.575843,579.6087151299375,-3.06870229,6.595419847328244,1.1450381679389312,-0.046476762,0.3748125937031484,0.10494752623688156
1.7089464888547668E12,2.380434782608696,-6.423913043,2.9891304347826084,3975.0915750915747,128,128,9.131175176,35.916282643828715,45.04745781987403,482.57779032919296,579.6064793594455,-3.175572519,6.549618320610687,1.1603053435114503,-0.070464768,0.39430284857571213,0.10644677661169415
1.708946488874298E12,2.4130434782608696,-6.423913043,2.9782608695652173,3973.626373626373,128,128,9.126487270174893,35.90885411606481,45.03534139,482.5772854777915,579.6002047777421,-3.267175573,6.366412213740458,0.9618320610687022,-0.083958021,0.39730134932533734,0.12293853073463268
1.7089464888938293E12,2.402173913043478,-6.413043478,2.9565217391304346,3972.161172161172,128,128,9.119419350554866,35.92118691458547,45.04060626514033,482.579377,579.6119606032325,-4.045801527,6.1679389312977095,0.9618320610687022,-0.070464768,0.38830584707646176,0.1169415292353823
1.7089464889133606E12,2.391304347826087,-6.456521739,2.9891304347826084,3973.626373626373,128,128,9.118265404494453,35.906401980686425,45.02466738518088,482.58017034294255,579.6053254133851,-4.641221374,6.1679389312977095,0.7175572519083969,-0.073463268,0.38530734632683655,0.1199400299850075
1.7089464889328918E12,2.4130434782608696,-6.456521739,2.9565217391304346,3973.626373626373,128,128,9.126919999947548,35.86817751743526,44.99509752,482.5824782350634,579.3262868316516,-4.458015267,5.862595419847328,0.7175572519083969,-0.074962519,0.3988005997001499,0.098950525
1.708946488952423E12,2.380434782608696,-6.434782609,2.9456521739130435,3973.626373626373,128,128,9.110692633472995,35.898684966407416,45.00937759988041,482.58586795161585,579.6072005757333,-4.351145038,6.259541984732824,0.6412213740458015,-0.082458771,0.38080959520239877,0.1169415292353823
1.7089464889719543E12,2.391304347826087,-6.445652174,2.9456521739130435,3973.626373626373,128,128,9.102110159648676,35.90459893996703,45.006709099615705,482.5865891679036,579.6027290347492,-4.717557252,6.137404580152672,0.7175572519083969,-0.067466267,0.39430284857571213,0.10644677661169415
1.7089464889914856E12,2.4130434782608696,-6.467391304,2.9456521739130435,3947.252747252747,128,128,9.119491472183642,35.888227330234926,45.007718802418566,482.5912771,579.6059023864153,-4.580152672,6.5038167938931295,0.549618321,-0.082458771,0.3733133433283358,0.11094452773613193
1.7089464890110168E12,2.391304347826087,-6.510869565,2.9782608695652173,3975.0915750915747,128,128,9.128290310894288,35.92003296852506,45.04832327941934,482.59178192517544,579.5971035477047,-3.816793893,6.183206106870228,0.564885496,-0.077961019,0.39430284857571213,0.10644677661169415
1.708946489030548E12,2.4130434782608696,-6.5,2.9456521739130435,3973.626373626373,128,128,9.134348527711454,35.90604137254255,45.040389900254006,482.5924310198344,579.6007096291435,-3.633587786,5.877862595419847,0.3511450381679389,-0.082458771,0.3913043478260869,0.092953523
1.7089464890500793E12,2.380434782608696,-6.467391304,2.9782608695652173,3973.626373626373,128,128,9.168894788,35.93683730802981,45.10573209592487,482.5922146549481,579.5907568443724,-2.519083969,6.213740458015267,0.4427480916030534,-0.083958021,0.3793103448275862,0.097451274
1.7089464890696106E12,2.380434782608696,-6.445652174,2.9782608695652173,3973.626373626373,128,128,9.151441353731318,35.92428814462282,45.07572949835414,482.5901952493424,579.5773422214202,-2.244274809,6.076335877862595,-0.015267176,-0.08095952,0.3793103448275862,0.10494752623688156
1.7089464890891418E12,2.3478260869565215,-6.445652174,2.967391304347826,3973.626373626373,128,128,9.106725943890327,35.842357974333524,44.94908391822385,482.59481103358405,579.6123933330051,-2.458015267,6.122137404580153,0.5801526717557252,-0.076461769,0.4077961019490255,0.10794602698650674
1.708946489108673E12,2.380434782608696,-6.434782609,2.9239130434782608,3972.161172161172,128,128,9.105716241087466,35.83024154069919,44.935957781786655,482.59661407430343,579.6080660352786,-2.763358779,6.5038167938931295,0.6106870229007634,-0.077961019,0.4017991004497751,0.098950525
1.7089464891282043E12,2.4239130434782608,-6.445652174,3,3973.626373626373,128,128,9.102038038,35.83557854,44.93761658,482.6007971287724,579.6240770368669,-3.435114504,6.290076335877862,0.732824427,-0.065967016,0.39280359820089955,0.097451274
1.7089464891477356E12,2.402173913043478,-6.445652174,2.934782608695652,3950.18315,128,128,9.102110159648676,35.82425545,44.926365605159475,482.60043652062853,579.6224182,-3.175572519,6.473282442748092,0.5954198473282443,-0.077961019,0.383808096,0.1169415292353823
1.7089464891672668E12,2.4130434782608696,-6.445652174,2.9891304347826084,3975.0915750915747,128,128,9.091147672074756,35.83940098755372,44.93054865962847,482.6014462234314,579.6215527798597,-2.702290076,6.778625954198473,0.7480916030534351,-0.08095952,0.38530734632683655,0.10194902548725637
1.708946489186798E12,2.4130434782608696,-6.445652174,2.9239130434782608,3975.0915750915747,128,128,9.103480470595416,35.87185572050282,44.975336191098236,482.60368199392343,579.2936878554449,-3.267175573,6.763358778625954,0.732824427,-0.074962519,0.40629685157421286,0.10644677661169415
1.7089464892063293E12,2.4130434782608696,-6.423913043,2.934782608695652,3973.626373626373,128,128,9.520631971434591,37.10131312624373,46.62194509767832,482.60101349365874,579.1386984752057,-2.854961832,6.534351145038167,0.9007633587786259,-0.073463268,0.3793103448275862,0.10794602698650674
1.7089464892258606E12,2.4130434782608696,-6.445652174,2.9239130434782608,3975.0915750915747,128,128,9.249454647237616,36.36170582,45.61116047038561,482.60360987229467,579.3842726211873,-3.328244275,6.106870229007633,0.8549618320610687,-0.070464768,0.383808096,0.11394302848575712
1.7089464892453918E12,2.402173913043478,-6.391304348,2.891304347826087,3973.626373626373,128,128,9.133771554681248,35.65368779345606,44.787459348137304,482.6017347099465,579.7362983,-2.610687023,5.648854961832061,0.6259541984732824,-0.070464768,0.38830584707646176,0.10644677661169415
1.708946489264923E12,2.369565217391304,-6.380434783,2.891304347826087,3973.626373626373,128,128,9.124684229455498,35.867528422776275,44.99221265223177,482.6035377506659,579.6528535667484,-2.870229008,7.022900763358779,0.8091603053435115,-0.076461769,0.38980509745127434,0.1199400299850075
1.7089464892844543E12,2.380434782608696,-6.358695652,2.880434782608696,3973.626373626373,128,128,9.124395742940395,35.84567556925721,44.970071312197604,482.6046916967263,579.6485983906506,-1.893129771,7.557251908396946,0.7786259541984732,-0.076461769,0.38530734632683655,0.11244377811094453
1.7089464893039856E12,2.4130434782608696,-6.358695652,2.880434782608696,3948.7179487179483,128,128,9.129516378583476,35.86651871997341,44.99603509855689,482.6041147236961,579.6571808644749,-3.816793893,7.603053435114504,0.9465648854961831,-0.083958021,0.39280359820089955,0.10194902548725637
1.7089464893235168E12,2.4565217391304346,-6.380434783,2.902173913043478,3975.0915750915747,128,128,9.132906095135938,35.88527034345512,45.018176438591055,482.6064947374457,579.6446317,-2.961832061,7.221374045801526,1.2061068702290076,-0.068965517,0.38980509745127434,0.097451274
1.708946489343048E12,2.402173913043478,-6.445652174,2.8478260869565215,3973.626373626373,128,128,9.159374732896655,35.882601843190415,45.04197657608707,482.6033935074083,579.6681433520488,-4.13740458,6.244274809160305,0.6717557251908397,-0.073463268,0.4002998500749625,0.10494752623688156
1.7089464893625793E12,2.3478260869565215,-6.467391304,2.891304347826087,3972.161172161172,128,128,9.162548085,35.90156983155845,45.06411791612124,482.60397048043853,579.6689366899653,-2.030534351,5.969465648854961,0.42748091603053434,-0.073463268,0.3823088455772114,0.11544227886056971
1.7089464893821106E12,2.391304347826087,-6.456521739,2.934782608695652,3947.252747252747,128,128,9.216927792659735,35.894934641711075,45.11186243437081,482.60130198017384,579.6794664477667,-4.122137405,6.152671755725191,0.48854961832061067,-0.067466267,0.3988005997001499,0.10644677661169415
1.7089464894016418E12,2.4239130434782608,-6.413043478,3.010869565217391,3970.6959706959706,128,128,9.262436540417259,35.90294014250519,45.16537668292245,482.59747953384874,579.7096132885949,-4.503816794,6.5038167938931295,0.5954198473282443,-0.074962519,0.383808096,0.10644677661169415
1.708946489421173E12,2.467391304347826,-6.347826087,2.9891304347826084,3972.161172161172,128,128,9.299579179236792,35.911883224473385,45.21146240371018,482.5972631689624,579.7099738967388,-4.961832061,6.534351145038167,0.9618320610687022,-0.055472264,0.383808096,0.092953523
1.7089464894407043E12,2.402173913043478,-6.402173913,2.967391304347826,3973.626373626373,128,128,9.328355709118332,35.93669306477226,45.26504877389059,482.5972631689624,579.3695598089171,-5.847328244,6.549618320610687,0.9007633587786259,-0.077961019,0.3913043478260869,0.10644677661169415
1.7089464894602356E12,2.380434782608696,-6.456521739,2.891304347826087,3948.7179487179483,128,128,9.274264488,36.00463163907905,45.27889612661554,482.59675831756095,579.6369146867889,-5.389312977,6.65648855,0.8244274809160305,-0.077961019,0.39430284857571213,0.095952024
1.7089464894797668E12,2.3478260869565215,-6.456521739,2.869565217391304,3975.0915750915747,128,128,9.158076544,35.97866785271977,45.13674439629846,482.59509952009915,579.6169369956181,-5.06870229,6.320610687,0.9923664122137404,-0.073463268,0.38980509745127434,0.10194902548725637
1.708946489499298E12,2.391304347826087,-6.434782609,2.9239130434782608,3973.626373626373,128,128,9.126559391803669,35.93777489,45.06433428100757,482.59596497964446,579.6033781294082,-4.748091603,6.305343511450381,0.6412213740458015,-0.065967016,0.3748125937031484,0.10194902548725637
1.7089464895188293E12,2.4239130434782608,-6.423913043,2.9456521739130435,3973.626373626373,128,128,9.099513781012748,35.91181110284461,45.011324883857355,482.5941619,579.5978247639924,-5.053435115,6.763358778625954,0.7175572519083969,-0.08095952,0.39730134932533734,0.10194902548725637
1.7089464895383606E12,2.4239130434782608,-6.47826087,2.9782608695652173,3973.626373626373,128,128,9.091508280218635,35.90164195318722,44.993150233405856,482.5919982900618,579.5947235339551,-4.916030534,6.3969465648854955,0.8396946564885496,-0.073463268,0.39280359820089955,0.10794602698650674
1.7089464895578918E12,2.4239130434782608,-6.532608696,2.8478260869565215,3973.626373626373,128,128,9.075064548857755,35.90993594049644,44.98500048935419,482.58997888445606,579.5896029,-4.732824427,6.824427480916031,1.1603053435114503,-0.08095952,0.3748125937031484,0.11544227886056971
1.708946489577423E12,2.4130434782608696,-6.489130435,2.9891304347826084,3973.626373626373,128,128,9.077949414008787,35.909142602579905,44.98709201658869,482.5891855465395,579.5852034789567,-4.030534351,7.190839694656488,0.8396946564885496,-0.085457271,0.3913043478260869,0.11094452773613193
1.7089464895969543E12,2.380434782608696,-6.456521739,2.8478260869565215,3973.626373626373,128,128,9.077805170751235,35.911738981215834,44.98954415196707,482.58500249207054,579.5844822626689,-3.58778626,7.740458015267175,0.8396946564885496,-0.076461769,0.38980509745127434,0.10194902548725637
1.7089464896164856E12,2.380434782608696,-6.402173913,2.9239130434782608,3950.18315,128,128,9.081627617076352,35.924720874395476,45.006348491471826,482.58500249207054,579.5791452621395,-3.236641221,7.328244275,0.9618320610687022,-0.074962519,0.38080959520239877,0.10344827586206896
1.7089464896360168E12,2.380434782608696,-6.423913043,2.9239130434782608,3976.556776556776,128,128,9.074920305600203,35.93178879,45.006709099615705,482.58428127578276,579.5811646677453,-4.519083969,7.206106870229007,1.0076335877862594,-0.074962519,0.3988005997001499,0.1169415292353823
1.708946489655548E12,2.4565217391304346,-6.456521739,2.934782608695652,3973.626373626373,128,128,9.096628915861716,35.926091185342216,45.02272010120393,482.5824061134346,579.5934975,-3.893129771,7.022900763358779,0.6870229007633587,-0.08095952,0.39280359820089955,0.1199400299850075
1.7089464896750793E12,2.4347826086956523,-6.467391304,2.9130434782608696,3972.161172161172,128,128,9.085017333628814,35.943688862763516,45.02870619639233,482.5826945999497,579.5868622764185,-4.045801527,8.13740458,0.9923664122137404,-0.073463268,0.39730134932533734,0.10194902548725637
1.7089464896946106E12,2.4130434782608696,-6.52173913,2.9239130434782608,3973.626373626373,128,128,9.100739848701936,35.90986381886766,45.01060367,482.58557946510075,579.2764507861675,-3.801526718,8.244274809160306,0.9923664122137404,-0.065967016,0.39730134932533734,0.11244377811094453
1.7089464897141418E12,2.402173913043478,-6.532608696,2.9239130434782608,3973.626373626373,128,128,9.079608211,35.93589972685572,45.01550793832635,482.5827667215785,579.5425074747214,-3.480916031,8.580152671755725,1.2366412213740459,-0.068965517,0.39730134932533734,0.10794602698650674
1.708946489733673E12,2.380434782608696,-6.5,2.9130434782608696,3972.161172161172,128,128,9.067852385980176,35.939794294809616,45.00764668078979,482.5820455052907,579.5419305016912,-2.259541985,8.274809160305344,1.5877862595419847,-0.067466267,0.38080959520239877,0.098950525
1.7089464897532043E12,2.3478260869565215,-6.445652174,2.9239130434782608,3972.161172161172,128,128,9.073622116,35.94008278132472,45.01370489760696,482.5739678828678,579.5343577306697,-1.893129771,8.412213740458014,1.664122137,-0.070464768,0.3913043478260869,0.10344827586206896
1.7089464897727356E12,2.402173913043478,-6.434782609,2.934782608695652,3947.252747252747,128,128,9.063236601738526,35.94469856556637,45.00793516730489,482.5740400044966,579.5322662034353,-1.58778626,7.938931297709924,1.465648854961832,-0.076461769,0.38530734632683655,0.11244377811094453
1.7089464897922668E12,2.4130434782608696,-6.456521739,2.9782608695652173,3973.626373626373,128,128,9.065328128973023,35.94318401136208,45.00851214,482.575843,579.5539026920679,-2.519083969,7.786259541984733,1.3893129770992365,-0.082458771,0.38830584707646176,0.11394302848575712
1.708946489811798E12,2.391304347826087,-6.52173913,2.9239130434782608,3973.626373626373,128,128,9.050471073,35.94844889026271,44.99891996370792,482.5759872884735,579.5472675022206,-2.595419847,7.786259541984733,1.3740458015267174,-0.077961019,0.383808096,0.10344827586206896
1.7089464898313293E12,2.4130434782608696,-6.5,2.934782608695652,3972.161172161172,128,128,9.053500181853794,35.94130884901391,44.99480903,482.5738236396103,579.5441662721832,-2.595419847,8.183206106870228,1.2213740458015268,-0.088455772,0.38980509745127434,0.12593703148425786
1.7089464898508606E12,2.391304347826087,-6.489130435,2.9130434782608696,3973.626373626373,128,128,9.053500181853794,35.95046829586843,45.003968477722225,482.57007331491394,579.5414256502897,-2.198473282,7.664122137,1.0534351145038168,-0.076461769,0.39280359820089955,0.097451274
1.7089464898703918E12,2.402173913043478,-6.456521739,2.9456521739130435,3973.626373626373,128,128,9.046071654089888,35.95032405261088,44.99639570670077,482.57266969354987,579.5331316629805,-2.091603053,7.328244275,0.7938931297709924,-0.073463268,0.3793103448275862,0.11544227886056971
1.708946489889923E12,2.391304347826087,-6.445652174,2.967391304347826,3972.161172161172,128,128,9.049821978786229,36.01725292411482,45.06707490290105,482.5692799769974,579.5184909723391,-1.877862595,7.832061069,0.8396946564885496,-0.082458771,0.3913043478260869,0.11094452773613193
1.7089464899094543E12,2.402173913043478,-6.423913043,2.902173913043478,3973.626373626373,128,128,9.072828778365706,35.99366915150514,45.06649792987084,482.56726057139167,579.5213037158613,-2.381679389,7.312977099236641,1.114503816793893,-0.083958021,0.38530734632683655,0.11244377811094453
1.7089464899289856E12,2.402173913043478,-6.445652174,2.9456521739130435,3948.7179487179483,128,128,9.082709441507989,35.98898124563471,45.07169069,482.5668999632478,579.5254867703303,-2.366412214,7.221374045801526,1.099236641221374,-0.077961019,0.3913043478260869,0.095952024
1.7089464899485168E12,2.402173913043478,-6.423913043,2.9239130434782608,3975.0915750915747,128,128,9.055808074,35.929697266781005,44.98550534075562,482.56625086858884,579.1872363313719,-2,6.961832061068702,0.8091603053435115,-0.076461769,0.39730134932533734,0.10494752623688156
1.708946489968048E12,2.402173913043478,-6.423913043,2.9130434782608696,3972.161172161172,128,128,9.014049650913435,35.92392753647894,44.93797718739238,482.56704420650533,579.5401274609718,-1.770992366,7.358778625954198,0.8244274809160305,-0.068965517,0.38980509745127434,0.1199400299850075
1.7089464899875793E12,2.380434782608696,-6.423913043,2.902173913043478,3973.626373626373,128,128,9.014698745572417,35.91339777867768,44.928096524250094,482.55925507059754,579.5480608401372,-0.946564885,8.244274809160306,1.0687022900763359,-0.062968516,0.383808096,0.11094452773613193
1.7089464900071106E12,2.380434782608696,-6.456521739,2.9239130434782608,3975.0915750915747,128,128,9.029267314585129,35.905536521141116,44.93480383572624,482.55997628688533,579.5348625820711,-0.290076336,8.488549618,1.0687022900763359,-0.062968516,0.39430284857571213,0.11094452773613193
1.7089464900266418E12,2.380434782608696,-6.467391304,2.9891304347826084,3975.0915750915747,128,128,9.019242408185294,35.91851841432076,44.93776082250605,482.55925507059754,579.5330595413518,-0.580152672,8.274809160305344,1.114503816793893,-0.074962519,0.37631184407796103,0.095952024
1.708946490046173E12,2.380434782608696,-6.47826087,2.9891304347826084,3973.626373626373,128,128,8.998327135840313,35.92962514515223,44.92795228099254,482.5627169087788,579.5272898110497,-0.763358779,7.893129770992366,1.0076335877862594,-0.073463268,0.39730134932533734,0.11544227886056971
1.7089464900657043E12,2.369565217391304,-6.456521739,2.9891304347826084,3973.626373626373,128,128,9.290419732382267,36.625815227724935,45.916234960107204,482.55572111078754,579.2695271,-0.748091603,7.832061069,0.9618320610687022,-0.068965517,0.39280359820089955,0.1199400299850075
1.7089464900852356E12,2.402173913043478,-6.445652174,3.032608695652174,3948.7179487179483,128,128,9.467189845,37.28551177,46.75270161064883,482.55838961105223,578.8678817591526,-0.366412214,7.938931297709924,0.6106870229007634,-0.056971514,0.38980509745127434,0.10794602698650674
1.7089464901047668E12,2.402173913043478,-6.445652174,2.934782608695652,3947.252747252747,128,128,9.047369843407852,35.80759534926359,44.85496519267144,482.55838961105223,579.6025126698629,-0.763358779,7.587786259541985,1.1603053435114503,-0.065967016,0.3748125937031484,0.10194902548725637
1.708946490124298E12,2.358695652173913,-6.434782609,3.0869565217391304,3973.626373626373,128,128,9.054221398141552,35.96748900025952,45.02171039840107,482.5543507998408,579.5520996513486,-1.480916031,7.419847328244274,1.0076335877862594,-0.065967016,0.38530734632683655,0.1199400299850075
1.7089464901438293E12,2.3260869565217392,-6.467391304,3.010869565217391,3972.161172161172,128,128,9.037849788409448,35.962079878101335,44.99992966651078,482.55161017794734,579.552316,-2.351145038,8.65648855,0.7786259541984732,-0.073463268,0.39280359820089955,0.10494752623688156
1.7089464901633606E12,2.3478260869565215,-6.456521739,2.967391304347826,3973.626373626373,128,128,9.048523789468264,35.951261633784966,44.99978542325323,482.54620105578914,579.5605378819154,0.2595419847328244,8.198473282442748,1.0229007633587786,-0.067466267,0.3913043478260869,0.10644677661169415
1.7089464901828918E12,2.369565217391304,-6.413043478,2.9565217391304346,3972.161172161172,128,128,9.045061951287027,35.96229624298766,45.00735819427469,482.54468650158486,579.5586627195672,0.7633587786259541,8.610687022900763,1.0687022900763359,-0.068965517,0.38530734632683655,0.11244377811094453
1.708946490202423E12,2.380434782608696,-6.423913043,3.0652173913043477,3972.161172161172,128,128,9.072828778365706,35.94895374166414,45.021782520029845,482.54497498809997,579.2421208908703,-0.259541985,8.870229007633588,1.3435114503816794,-0.091454273,0.4077961019490255,0.097451274
1.7089464902219543E12,2.3478260869565215,-6.445652174,3.0978260869565215,3973.626373626373,128,128,9.073549994653463,35.979172704121204,45.052722698774666,482.5425949743504,579.5695530855123,-0.396946565,7.6183206106870225,1.129770992366412,-0.074962519,0.39430284857571213,0.11094452773613193
1.7089464902414856E12,2.3260869565217392,-6.489130435,3.0652173913043477,3947.252747252747,128,128,9.114659323055664,35.986024258854904,45.100683581910566,482.53985435245687,579.5983296153938,-0.396946565,7.251908396946565,0.9465648854961831,-0.076461769,0.39730134932533734,0.10494752623688156
1.7089464902610168E12,2.358695652173913,-6.510869565,3.0760869565217392,3973.626373626373,128,128,9.145527380171703,35.99402975964901,45.13955713982072,482.5359598,579.6219855096323,0.2595419847328244,7.297709923664121,0.8091603053435115,-0.073463268,0.38980509745127434,0.11544227886056971
1.708946490280548E12,2.391304347826087,-6.489130435,3.0760869565217392,3973.626373626373,128,128,9.182165167589805,35.999583125064746,45.181748292654554,482.53249794632177,579.6390783356522,1.4045801526717556,7.145038167938931,0.5190839694656488,-0.077961019,0.38830584707646176,0.10344827586206896
1.7089464903000793E12,2.380434782608696,-6.413043478,3.108695652173913,3972.161172161172,128,128,9.228899983036516,36.032975439187936,45.261875422224456,482.5272330674211,579.6483099041355,1.450381679389313,6.473282442748092,0.564885496,-0.067466267,0.40629685157421286,0.098950525
