Shimmer_6D72_Timestamp_Unix_CAL,Shimmer_6D72_Accel_LN_X_CAL,Shimmer_6D72_Accel_LN_Y_CAL,Shimmer_6D72_Accel_LN_Z_CAL,Shimmer_6D72_Battery_CAL,Shimmer_6D72_ECG_EMG_Status1_CAL,Shimmer_6D72_ECG_EMG_Status2_CAL,Shimmer_6D72_ECG_LA-RA_24BIT_CAL,Shimmer_6D72_ECG_LL-LA_24BIT_CAL,Shimmer_6D72_ECG_LL-RA_24BIT_CAL,Shimmer_6D72_ECG_RESP_24BIT_CAL,Shimmer_6D72_ECG_Vx-RL_24BIT_CAL,Shimmer_6D72_Gyro_X_CAL,Shimmer_6D72_Gyro_Y_CAL,Shimmer_6D72_Gyro_Z_CAL,Shimmer_6D72_Mag_X_CAL,Shimmer_6D72_Mag_Y_CAL,Shimmer_6D72_Mag_Z_CAL
ms,m/(s^2),m/(s^2),m/(s^2),mV,no_units,no_units,mV,mV,mV,mV,mV,deg/s,deg/s,deg/s,local_flux,local_flux,local_flux
1.708946773309204E12,2.2717391304347827,-6.402173913,3.391304347826087,3961.9047619047615,128,128,2.6987192271613156,41.24347463172372,43.942193858885034,481.6393436955624,579.6958380574987,-6.213740458,7.083969465648854,0.6564885496183206,-0.070464768,0.40929535232383807,0.10344827586206896
1.7089467733287354E12,2.2717391304347827,-6.434782609,3.358695652173913,3967.7655677655675,128,128,3.6774097296487964,40.476028379920535,44.15343810956933,481.6396321820775,579.3149637359338,-6.580152672,6.7328244274809155,0.564885496,-0.076461769,0.39280359820089955,0.086956522
1.7089467733482666E12,2.2717391304347827,-6.456521739,3.369565217391304,3967.7655677655675,128,128,4.9142956631536086,39.55669397791552,44.47098964106913,481.63754065484295,579.6950447195823,-6.79389313,7.328244275,0.564885496,-0.085457271,0.38830584707646176,0.095952024
1.7089467733677979E12,2.282608695652174,-6.47826087,3.358695652173913,3956.043956043956,128,128,5.6294537340943505,39.01693570815751,44.64638944225186,481.6338624517754,579.6917271246585,-5.984732824,7.664122137,0.5801526717557252,-0.067466267,0.38830584707646176,0.098950525
1.708946773387329E12,2.260869565217391,-6.467391304,3.358695652173913,3967.7655677655675,128,128,6.534147445,38.31064859755619,44.84479604301406,481.6348000329495,579.6849476915536,-6.198473282,7.145038167938931,1.0076335877862594,-0.067466267,0.4017991004497751,0.098950525
1.7089467734068604E12,2.282608695652174,-6.445652174,3.3369565217391304,3967.7655677655675,128,128,7.055586821506837,37.904603827548485,44.96019064905532,481.6343673031768,579.6791779612515,-5.572519084,7.068702290076335,0.7786259541984732,-0.065967016,0.4002998500749625,0.10794602698650674
1.7089467734263916E12,2.3260869565217392,-6.413043478,3.3369565217391304,3967.7655677655675,128,128,7.525603476238666,37.544861143214845,45.07046461945351,481.6338624517754,579.6705954874272,-4.671755725,6.748091603053435,0.5954198473282443,-0.091454273,0.4002998500749625,0.10194902548725637
1.7089467734459229E12,2.3260869565217392,-6.391304348,3.3260869565217392,3967.7655677655675,128,128,8.162509579957675,37.05219829704741,45.21470787700509,481.63227577594233,579.6733361093206,-4.13740458,6.931297709923664,0.5954198473282443,-0.076461769,0.38980509745127434,0.10494752623688156
1.708946773465454E12,2.3260869565217392,-6.402173913,3.3369565217391304,3942.8571428571427,128,128,8.513669790466999,36.782319162168406,45.295988952635405,481.6327806273438,579.6669894059884,-3.419847328,6.900763358778626,0.48854961832061067,-0.085457271,0.4017991004497751,0.10344827586206896
1.7089467734849854E12,2.3152173913043477,-6.445652174,3.3369565217391304,3969.230769230769,128,128,9.010587812732197,36.39668481310425,45.40727262583645,481.6306891001093,579.6777355286761,-4.183206107,7.511450381679389,0.9007633587786259,-0.073463268,0.4077961019490255,0.086956522
1.7089467735045166E12,2.3369565217391304,-6.445652174,3.3260869565217392,3967.7655677655675,128,128,9.304844058137425,36.16719379033968,45.47203784847711,481.6293909107913,579.6677106222762,-3.419847328,7.404580152671755,0.7633587786259541,-0.070464768,0.39430284857571213,0.092953523
1.7089467735240479E12,2.3043478260869565,-6.413043478,3.3152173913043477,3956.043956043956,128,128,9.694517218413022,35.867167814632396,45.56168503304542,481.6293909107913,579.6667009194733,-3.145038168,6.946564885496183,0.7175572519083969,-0.074962519,0.3988005997001499,0.10344827586206896
1.708946773543579E12,2.3152173913043477,-6.402173913,3.3260869565217392,3967.7655677655675,128,128,9.933528296175993,35.691407405305796,45.62493570148179,481.6305448568517,579.6641045408373,-3.312977099,7.343511450381679,0.48854961832061067,-0.077961019,0.4017991004497751,0.11394302848575712
1.7089467735631104E12,2.3260869565217392,-6.402173913,3.3260869565217392,3967.7655677655675,128,128,10.158259291441357,35.52639311866679,45.68465241010814,481.62931878916254,579.4015818120935,-2.778625954,7.435114503816793,0.47328244274809156,-0.083958021,0.39280359820089955,0.07946027
1.7089467735826416E12,2.3369565217391304,-6.434782609,3.3478260869565215,3967.7655677655675,128,128,10.46131437555723,35.34962300653732,45.81093738209455,481.62874181613233,579.6533584181498,-3.34351145,7.526717557251908,0.8549618320610687,-0.076461769,0.39730134932533734,0.097451274
1.7089467736021729E12,2.3369565217391304,-6.402173913,3.369565217391304,3958.974358974359,128,128,10.67515500487745,35.23696902238953,45.912124027266984,481.6270830186705,579.6473723229614,-2.824427481,7.557251908396946,0.7022900763358778,-0.074962519,0.38830584707646176,0.088455772
1.708946773621704E12,2.3043478260869565,-6.413043478,3.369565217391304,3963.369963369963,128,128,10.90630482510386,35.01432955435867,45.92063437946253,481.6270830186705,579.6587675,-2.580152672,7.557251908396946,0.6870229007633587,-0.061469265,0.39280359820089955,0.094452774
1.7089467736412354E12,2.282608695652174,-6.434782609,3.3260869565217392,3967.7655677655675,128,128,11.005111456526691,34.874918445935066,45.88002990246176,481.6275878700719,579.6614360405727,-2.320610687,7.221374045801526,0.48854961832061067,-0.083958021,0.39730134932533734,0.097451274
1.7089467736607666E12,2.282608695652174,-6.423913043,3.3043478260869565,3969.230769230769,128,128,11.223135140315907,34.683940372936775,45.90707551325268,481.6216017748835,579.6638160543223,-1.832061069,7.3893129770992365,0.6259541984732824,-0.082458771,0.39430284857571213,0.10644677661169415
1.7089467736802979E12,2.3043478260869565,-6.413043478,3.282608695652174,3956.043956043956,128,128,11.34509281457577,34.60172171613237,45.94681453070814,481.62080843696697,579.6644651489813,-1.694656489,7.358778625954198,0.8854961832061068,-0.074962519,0.39430284857571213,0.095952024
1.708946773699829E12,2.3043478260869565,-6.423913043,3.3260869565217392,3969.230769230769,128,128,11.455871636375385,34.514743031828765,45.97061466820415,481.61857266647496,579.6659797031856,-2.030534351,7.6183206106870225,1.2671755725190839,-0.08095952,0.39280359820089955,0.089955022
1.7089467737193604E12,2.3152173913043477,-6.413043478,3.3260869565217392,3969.230769230769,128,128,11.619515612067653,34.40079085836302,46.02030647043067,481.62008722067924,579.6550172156117,-1.954198473,7.572519083969465,0.9770992366412213,-0.068965517,0.4002998500749625,0.097451274
1.7089467737388916E12,2.3043478260869565,-6.434782609,3.3478260869565215,3966.300366300366,128,128,11.704547012394311,34.336530487123795,46.0410775,481.6189332746188,579.6814858533724,-1.633587786,7.709923664122137,1.0687022900763359,-0.077961019,0.383808096,0.11394302848575712
1.7089467737584229E12,2.293478260869565,-6.423913043,3.3804347826086953,3967.7655677655675,128,128,12.163745422809772,34.89980040786271,47.06354583067249,481.6128029361729,579.4381474778828,-1.282442748,7.038167938931298,0.7480916030534351,-0.070464768,0.38830584707646176,0.11394302848575712
1.708946773777954E12,2.3152173913043477,-6.413043478,3.369565217391304,3964.8351648351645,128,128,12.383860633833486,35.532162848968845,47.91602348280233,481.61143262522614,579.0593646835524,-1.389312977,7.343511450381679,0.9465648854961831,-0.068965517,0.4002998500749625,0.094452774
1.7089467737974854E12,2.3260869565217392,-6.402173913,3.3043478260869565,3969.230769230769,128,128,12.127324000277996,33.94404458332594,46.071368583603935,481.6091247331053,579.7804367280528,-1.404580153,6.152671755725191,0.916030534,-0.08095952,0.38980509745127434,0.11244377811094453
1.7089467738170166E12,2.3260869565217392,-6.402173913,3.467391304347826,3969.230769230769,128,128,12.205431724242178,34.054679161867995,46.260110886110176,481.60811503030243,579.3787192557716,-2.305343511,7.893129770992366,1.129770992366412,-0.073463268,0.4002998500749625,0.097451274
1.7089467738365479E12,2.3043478260869565,-6.423913043,3.358695652173913,3954.5787545787543,128,128,12.291184340856594,33.99279880437837,46.28398314523496,481.60616774632547,579.7163927216999,-1.770992366,8.091603053435113,0.8091603053435115,-0.067466267,0.3913043478260869,0.10344827586206896
1.708946773856079E12,2.2717391304347827,-6.423913043,3.3260869565217392,3970.6959706959706,128,128,12.355228347209495,33.943323367038175,46.29855171424767,481.6025616648867,579.7215133573429,-0.641221374,8.061068702290076,1.129770992366412,-0.077961019,0.3988005997001499,0.11094452773613193
1.7089467738756104E12,2.293478260869565,-6.402173913,3.358695652173913,3967.7655677655675,128,128,12.417829920986883,33.90329586306761,46.321125784054495,481.60133559719753,579.7195661,-0.167938931,8.671755725,1.1755725190839694,-0.067466267,0.40629685157421286,0.098950525
1.7089467738951416E12,2.3260869565217392,-6.391304348,3.402173913043478,3967.7655677655675,128,128,12.520963850136264,33.851151925462716,46.37211577559898,481.60104711068243,579.7304564393111,-1.312977099,7.526717557251908,1.465648854961832,-0.068965517,0.38980509745127434,0.10494752623688156
1.7089467739146729E12,2.282608695652174,-6.413043478,3.467391304347826,3967.7655677655675,128,128,12.58082480202017,33.82576511213364,46.406589914153805,481.6005423,579.7303843176824,-2.427480916,6.900763358778626,1.465648854961832,-0.073463268,0.38980509745127434,0.11244377811094453
1.708946773934204E12,2.2717391304347827,-6.445652174,3.4130434782608696,3944.322344322344,128,128,12.698743665068587,33.7767224,46.475466069634685,481.58986825822217,579.7591608475639,-1.954198473,6.320610687,1.2671755725190839,-0.070464768,0.39430284857571213,0.11394302848575712
1.7089467739537354E12,2.260869565217391,-6.413043478,3.3804347826086953,3969.230769230769,128,128,12.774471375283168,33.76099988949298,46.53547126477615,481.5897961365934,579.7654354292674,-1.786259542,6.3969465648854955,0.9007633587786259,-0.070464768,0.40929535232383807,0.092953523
1.7089467739732666E12,2.3043478260869565,-6.456521739,3.4130434782608696,3967.7655677655675,128,128,12.910564888783085,33.73308881915675,46.64365370793983,481.5842427711776,579.7926252833158,-0.900763359,6.977099236641221,1.2061068702290076,-0.068965517,0.3823088455772114,0.10794602698650674
1.7089467739927979E12,2.3152173913043477,-6.402173913,3.391304347826087,3953.113553113553,128,128,12.98311924733153,33.72948273771796,46.71260198504949,481.5835215548899,579.8057514,-0.610687023,6.580152671755725,1.5114503816793892,-0.062968516,0.37631184407796103,0.10344827586206896
1.708946774012329E12,2.3043478260869565,-6.413043478,3.4130434782608696,3970.6959706959706,128,128,13.037498955428477,33.74830648282844,46.785805438256915,481.58481974420783,579.7781288,-0.717557252,7.038167938931298,1.5877862595419847,-0.08095952,0.4002998500749625,0.10494752623688156
1.7089467740318604E12,2.3152173913043477,-6.413043478,3.4130434782608696,3969.230769230769,128,128,12.985571382709907,33.75292226707009,46.73849365,481.5825119,579.6894192325377,-0.610687023,6.961832061068702,1.5725190839694656,-0.070464768,0.37631184407796103,0.095952024
1.7089467740513916E12,2.3152173913043477,-6.391304348,3.4239130434782608,3967.7655677655675,128,128,12.933066836961132,33.68137761132451,46.61444444828564,481.57919425716335,579.6734082309495,-0.534351145,7.267175572519084,1.5267175572519083,-0.061469265,0.38980509745127434,0.097451274
1.7089467740709229E12,2.3043478260869565,-6.369565217,3.4565217391304346,3958.974358974359,128,128,12.928378931090705,33.56742543785875,46.49580436894946,481.5763093920123,579.3262147100228,0.2748091603053435,7.022900763358779,1.3740458015267174,-0.067466267,0.40929535232383807,0.092953523
1.708946774090454E12,2.293478260869565,-6.391304348,3.5,3942.8571428571427,128,128,12.93840383749054,33.54449075990805,46.48289459739859,481.5741457,579.6514111341728,-0.381679389,7.145038167938931,1.2671755725190839,-0.076461769,0.4002998500749625,0.10194902548725637
1.7089467741099854E12,2.25,-6.423913043,3.510869565217391,3970.6959706959706,128,128,12.969127651349027,33.51369482442079,46.482822475769815,481.5691693507635,579.6429729,-0.305343511,6.946564885496183,1.4351145038167938,-0.065967016,0.39280359820089955,0.10494752623688156
1.7089467741295166E12,2.2717391304347827,-6.423913043,3.510869565217391,3969.230769230769,128,128,12.98946595,33.49465471442398,46.48412066508778,481.56606812072613,579.6447038226967,-0.41221374,6.854961832061068,0.8702290076335878,-0.074962519,0.383808096,0.10344827586206896
1.7089467741490479E12,2.260869565217391,-6.434782609,3.5,3953.113553113553,128,128,13.012328506985726,33.478283104691876,46.49061161,481.56628448561247,579.6476608094765,-0.122137405,6.580152671755725,0.7480916030534351,-0.062968516,0.3988005997001499,0.092953523
1.708946774168579E12,2.282608695652174,-6.413043478,3.4782608695652173,3969.230769230769,128,128,13.042691712700334,33.46450787,46.50719958629603,481.56722206678654,579.6519159855743,0.366412214,6.061068702290076,0.7938931297709924,-0.067466267,0.3913043478260869,0.1169415292353823
1.7089467741881104E12,2.260869565217391,-6.391304348,3.510869565217391,3969.230769230769,128,128,13.07377613,33.447775655719724,46.52155179042242,481.5631832555751,579.6480935392492,0.13740458015267176,7.038167938931298,0.5038167938931297,-0.065967016,0.39280359820089955,0.10194902548725637
1.7089467742076416E12,2.260869565217391,-6.347826087,3.510869565217391,3967.7655677655675,128,128,13.099956285948311,33.43248587041926,46.532442156367566,481.5626784041737,579.6542959993238,-0.244274809,7.328244275,0.9618320610687022,-0.077961019,0.40929535232383807,0.1169415292353823
1.7089467742271729E12,2.25,-6.336956522,3.5217391304347827,3967.7655677655675,128,128,13.113226665643056,33.43291860019191,46.546145265834966,481.5608753634543,579.6410977412579,-0.030534351,6.488549618320611,0.8549618320610687,-0.077961019,0.4017991004497751,0.092953523
1.708946774246704E12,2.2391304347826084,-6.358695652,3.5760869565217392,3966.300366300366,128,128,13.15000869631871,33.418999125838184,46.56900782215689,481.55892807947737,579.6438383631514,0.045801527,6.488549618320611,0.5190839694656488,-0.083958021,0.38530734632683655,0.094452774
1.7089467742662354E12,2.2282608695652173,-6.434782609,3.532608695652174,3969.230769230769,128,128,13.168976684686744,33.40522389474201,46.57420057942875,481.55892807947737,579.6396553086824,-0.427480916,5.832061069,0.6717557251908397,-0.076461769,0.4002998500749625,0.10194902548725637
1.7089467742857666E12,2.2717391304347827,-6.434782609,3.5652173913043477,3969.230769230769,128,128,13.183977983472108,33.392097758304814,46.57607574177692,481.55690867387165,579.632371,0.15267175572519084,6.137404580152672,0.42748091603053434,-0.082458771,0.38830584707646176,0.098950525
1.7089467743052979E12,2.260869565217391,-6.391304348,3.5760869565217392,3950.18315,128,128,13.193642281728064,33.38048617607191,46.57412845779997,481.55532199803855,579.6297025239113,-0.091603053,6.198473282442748,0.6717557251908397,-0.065967016,0.4002998500749625,0.097451274
1.708946774324829E12,2.282608695652174,-6.402173913,3.5760869565217392,3969.230769230769,128,128,13.213475729641406,33.34723810520627,46.560713834847675,481.5533747140616,579.3602561,-0.351145038,6.534351145038167,0.8854961832061068,-0.070464768,0.39430284857571213,0.088455772
1.7089467743443604E12,2.2717391304347827,-6.369565217,3.6304347826086953,3969.230769230769,128,128,13.235689191304349,33.35077206501629,46.58646125632063,481.55207652474365,579.6251588612985,-0.213740458,6.900763358778626,0.8549618320610687,-0.082458771,0.40929535232383807,0.08095952
1.7089467743638916E12,2.293478260869565,-6.358695652,3.5978260869565215,3967.7655677655675,128,128,13.24167528649274,33.345146577971775,46.58682186446451,481.55063409216814,579.6200382256554,-0.79389313,6.534351145038167,0.7633587786259541,-0.076461769,0.38530734632683655,0.094452774
1.7089467743834229E12,2.282608695652174,-6.347826087,3.641304347826087,3969.230769230769,128,128,13.24542561118908,33.333174387594994,46.57859999878407,481.5463067944416,579.6278273615632,-1.190839695,6.290076335877862,0.8396946564885496,-0.073463268,0.39730134932533734,0.089955022
1.708946774402954E12,2.2717391304347827,-6.358695652,3.652173913043478,3945.7875457875457,128,128,13.273336681525313,33.31377367,46.587110350979614,481.5473164972444,579.6302073753128,-1.374045802,6.061068702290076,0.2595419847328244,-0.070464768,0.3988005997001499,0.11094452773613193
1.7089467744224854E12,2.2717391304347827,-6.369565217,3.608695652173913,3969.230769230769,128,128,13.282568250008614,33.30281118188038,46.585379431888995,481.5433498076618,579.6377080247055,-1.694656489,6.351145038167939,0.32061068702290074,-0.082458771,0.38080959520239877,0.10644677661169415
1.7089467744420166E12,2.3043478260869565,-6.380434783,3.608695652173913,3967.7655677655675,128,128,13.295117413415602,33.288170491238894,46.5832879,481.5427007130028,579.6397996,-1.801526718,6.824427480916031,0.22900763358778625,-0.073463268,0.39730134932533734,0.097451274
1.7089467744615479E12,2.293478260869565,-6.391304348,3.608695652173913,3950.18315,128,128,13.313147820609549,33.28362682862602,46.59677464923557,481.5435661725481,579.6407371,-2.27480916,6.305343511450381,0.41221374045801523,-0.067466267,0.41379310344827586,0.098950525
1.708946774481079E12,2.282608695652174,-6.380434783,3.5869565217391304,3970.6959706959706,128,128,13.312498725950567,33.27396253037006,46.58646125632063,481.5408976722834,579.6527093234909,-1.709923664,6.519083969465648,0.2595419847328244,-0.059970015,0.40929535232383807,0.095952024
1.7089467745006104E12,2.3043478260869565,-6.347826087,3.5978260869565215,3969.230769230769,128,128,13.340770404430677,33.24972966,46.590500067532076,481.53895038830643,579.6524208369757,-2.061068702,6.305343511450381,0.13740458015267176,-0.074962519,0.3988005997001499,0.10344827586206896
1.7089467745201416E12,2.3043478260869565,-6.358695652,3.641304347826087,3967.7655677655675,128,128,13.354978365299507,33.24410417605689,46.599082541356395,481.5394552397079,579.6511947692866,-2.198473282,6.442748091603053,0.3053435114503817,-0.070464768,0.4017991004497751,0.095952024
1.7089467745396729E12,2.2717391304347827,-6.369565217,3.652173913043478,3970.6959706959706,128,128,13.35303108132256,33.245835095147505,46.59886617647007,481.5362098,579.6403765249702,-2.213740458,6.641221374045801,0.2595419847328244,-0.065967016,0.39730134932533734,0.10494752623688156
1.708946774559204E12,2.282608695652174,-6.402173913,3.6630434782608696,3969.230769230769,128,128,13.395871328815382,33.280597720217436,46.67646904903282,481.5346952122087,579.6215527798597,-1.679389313,6.916030534351145,0.5038167938931297,-0.068965517,0.39280359820089955,0.094452774
1.7089467745787354E12,2.293478260869565,-6.391304348,3.652173913043478,3969.230769230769,128,128,13.413757492751778,33.24042597298932,46.65418347,481.5359212798979,579.2833023409012,-2.549618321,6.442748091603053,0.2748091603053435,-0.082458771,0.4017991004497751,0.10344827586206896
1.7089467745982666E12,2.282608695652174,-6.380434783,3.684782608695652,3969.230769230769,128,128,13.445130401269246,33.28975716707196,46.73488756834121,481.5331085363756,579.6149175900123,-2.458015267,6.961832061068702,0.7175572519083969,-0.077961019,0.40629685157421286,0.095952024
1.7089467746177979E12,2.293478260869565,-6.380434783,3.684782608695652,3948.7179487179483,128,128,13.43820672490677,33.232636837081536,46.670843561988306,481.53217095520154,579.6286206994797,-2.778625954,6.671755725190839,0.4427480916030534,-0.070464768,0.3913043478260869,0.095952024
1.708946774637329E12,2.282608695652174,-6.391304348,3.652173913043478,3970.6959706959706,128,128,13.40892534,33.18186321042338,46.59078855404718,481.53000730633823,579.6304958618279,-2.839694656,6.809160305343511,0.916030534,-0.076461769,0.39730134932533734,0.10194902548725637
1.7089467746568604E12,2.282608695652174,-6.380434783,3.652173913043478,3969.230769230769,128,128,13.413396884607899,33.15070666679224,46.56410355140014,481.52921396842174,579.6476608094765,-2.79389313,6.793893129770992,0.7633587786259541,-0.083958021,0.39280359820089955,0.097451274
1.7089467746763916E12,2.3043478260869565,-6.380434783,3.652173913043478,3967.7655677655675,128,128,13.428903034794693,33.13440717868891,46.563310213483604,481.53036791448216,579.6435498766363,-2.549618321,6.687022900763359,0.8091603053435115,-0.074962519,0.4017991004497751,0.11094452773613193
1.7089467746959229E12,2.3369565217391304,-6.369565217,3.6630434782608696,3967.7655677655675,128,128,13.42998485922633,33.13094534050767,46.5609302,481.5291418467929,579.6413141061443,-2.732824427,6.763358778625954,0.6870229007633587,-0.076461769,0.4002998500749625,0.089955022
1.708946774715454E12,2.3043478260869565,-6.380434783,3.684782608695652,3945.7875457875457,128,128,13.447366171761296,33.12510348857683,46.57246966033813,481.5268339546721,579.6304237401991,-2.900763359,7.114503816793893,1.099236641221374,-0.059970015,0.38080959520239877,0.10644677661169415
1.7089467747349854E12,2.293478260869565,-6.380434783,3.6304347826086953,3970.6959706959706,128,128,13.446284347329659,33.26134125,46.70762559266396,481.5228672650895,579.6283322129646,-2.595419847,6.671755725190839,0.7022900763358778,-0.082458771,0.4017991004497751,0.10644677661169415
1.7089467747545166E12,2.3043478260869565,-6.347826087,3.6630434782608696,3969.230769230769,128,128,13.841510873020992,33.87235568,47.71386655734379,481.5228672650895,579.2995297073758,-2.320610687,6.198473282442748,0.48854961832061067,-0.067466267,0.4017991004497751,0.092953523
1.7089467747740479E12,2.3043478260869565,-6.358695652,3.6304347826086953,3947.252747252747,128,128,14.013160349507375,34.23274746331543,48.24590781,481.52423757603617,579.0204911256423,-2.870229008,6.824427480916031,0.7022900763358778,-0.085457271,0.40929535232383807,0.085457271
1.708946774793579E12,2.3260869565217392,-6.358695652,3.6304347826086953,3945.7875457875457,128,128,13.526699963414666,33.073320159115816,46.60002012253048,481.5269060763009,579.6266734155028,-2.778625954,6.351145038167939,0.7480916030534351,-0.076461769,0.41079460269865065,0.089955022
1.7089467748131104E12,2.3152173913043477,-6.358695652,3.6956521739130435,3967.7655677655675,128,128,13.525546017354253,33.16296734368412,46.688513361038375,481.5265455,579.6132587925505,-3.679389313,6.870229007633587,0.6870229007633587,-0.074962519,0.40929535232383807,0.088455772
1.7089467748326416E12,2.2717391304347827,-6.380434783,3.6630434782608696,3966.300366300366,128,128,13.525185409210374,33.11991073130498,46.64509614051535,481.52409333277865,579.3141703980173,-3.770992366,7.190839694656488,0.916030534,-0.092953523,0.40929535232383807,0.085457271
1.7089467748521729E12,2.293478260869565,-6.402173913,3.652173913043478,3969.230769230769,128,128,13.527926031103854,33.13195504331053,46.659881074414386,481.52171331902906,579.6425401738335,-3.022900763,7.572519083969465,0.8244274809160305,-0.08095952,0.4047976011994003,0.094452774
1.708946774871704E12,2.3043478260869565,-6.369565217,3.5978260869565215,3969.230769230769,128,128,13.552807993031502,33.13080109725012,46.68360909028162,481.52027088645355,579.6693694,-1.786259542,7.297709923664121,0.9007633587786259,-0.08095952,0.39730134932533734,0.089955022
1.7089467748912354E12,2.25,-6.369565217,3.608695652173913,3969.230769230769,128,128,13.572785684202396,33.131738678424206,46.70452436,481.52077573785493,579.6681433520488,-2.763358779,7.343511450381679,1.0687022900763359,-0.082458771,0.40929535232383807,0.10344827586206896
1.7089467749107666E12,2.293478260869565,-6.369565217,3.7391304347826084,3969.230769230769,128,128,13.587065766700002,33.133830205658704,46.720895972358704,481.52236241368803,579.6897077190528,-4.961832061,6.061068702290076,1.114503816793893,-0.077961019,0.4017991004497751,0.10344827586206896
1.7089467749302979E12,2.293478260869565,-6.434782609,3.75,3947.252747252747,128,128,13.619376256391556,33.143566625543436,46.76294288193499,481.52135271088514,579.7165369649574,-5.648854962,5.465648854961832,1.129770992366412,-0.068965517,0.39730134932533734,0.086956522
1.708946774949829E12,2.358695652173913,-6.434782609,3.782608695652174,3969.230769230769,128,128,13.666976531383579,33.147389071868545,46.81436560325213,481.51998239993844,579.7401928591959,-5.282442748,6.65648855,0.9465648854961831,-0.082458771,0.40629685157421286,0.10644677661169415
1.7089467749693604E12,2.369565217391304,-6.445652174,3.717391304347826,3969.230769230769,128,128,13.738665430386714,33.15258183,46.89124725952712,481.52229029205927,579.7773354980154,-5.145038168,7.175572519083969,0.5038167938931297,-0.065967016,0.4077961019490255,0.083958021
1.7089467749888916E12,2.3152173913043477,-6.391304348,3.6739130434782608,3969.230769230769,128,128,13.798165774126742,33.16974677678904,46.967912550915784,481.5251751572103,579.7851968,-4.167938931,7.129770992366412,0.9770992366412213,-0.085457271,0.4017991004497751,0.092953523
1.7089467750084229E12,2.260869565217391,-6.369565217,3.6304347826086953,3969.230769230769,128,128,13.804151869315133,33.24734965,47.05150151866693,481.5256078869829,579.7261291415846,-4.458015267,6.549618320610687,0.9312977099236641,-0.083958021,0.4002998500749625,0.10194902548725637
1.708946775027954E12,2.293478260869565,-6.347826087,3.608695652173913,3967.7655677655675,128,128,13.719481077132354,33.24172416230728,46.961205239439636,481.5254636437254,579.6603542161411,-4.427480916,6.961832061068702,1.3587786259541985,-0.073463268,0.38980509745127434,0.089955022
1.7089467750474854E12,2.3478260869565215,-6.358695652,3.641304347826087,3969.230769230769,128,128,13.630338743965478,33.184387467430525,46.81472621139601,481.5264012248995,579.6369868084176,-4.229007634,6.961832061068702,1.1755725190839694,-0.070464768,0.4017991004497751,0.088455772
1.7089467750670166E12,2.3369565217391304,-6.380434783,3.652173913043478,3967.7655677655675,128,128,13.569035359506055,33.11414100100291,46.683176360508966,481.5265455,579.6330201,-4.93129771,7.358778625954198,1.3435114503816794,-0.076461769,0.4002998500749625,0.094452774
1.7089467750865479E12,2.3043478260869565,-6.402173913,3.6739130434782608,3945.7875457875457,128,128,13.575237819580773,33.07432986191868,46.64956768149945,481.52921396842174,579.3484281716858,-5.282442748,7.709923664122137,1.5114503816793892,-0.082458771,0.40929535232383807,0.074962519
1.708946775106079E12,2.260869565217391,-6.402173913,3.619565217391304,3969.230769230769,128,128,13.566150494355023,33.0921439,46.65829439858132,481.52878123864906,579.6357607407285,-5.190839695,7.007633587786259,1.2061068702290076,-0.068965517,0.4047976011994003,0.094452774
1.7089467751256104E12,2.282608695652174,-6.391304348,3.641304347826087,3969.230769230769,128,128,13.563265629203991,33.09401906657447,46.65728469577846,481.5289976035354,579.6343904297818,-5.465648855,6.992366412,1.083969465648855,-0.088455772,0.39280359820089955,0.10194902548725637
1.7089467751451416E12,2.3043478260869565,-6.402173913,3.5543478260869565,3969.230769230769,128,128,13.572857805831172,33.07822442987257,46.65108223570374,481.5358491582691,579.6447759443255,-4.763358779,6.290076335877862,0.8244274809160305,-0.068965517,0.41529235382308843,0.10194902548725637
1.7089467751646729E12,2.282608695652174,-6.347826087,3.5869565217391304,3969.230769230769,128,128,13.574660846550566,33.074906834948884,46.64956768149945,481.5390946,579.6449202,-5.618320611,7.526717557251908,1.0534351145038168,-0.055472264,0.4017991004497751,0.10344827586206896
1.708946775184204E12,2.282608695652174,-6.380434783,3.5543478260869565,3944.322344322344,128,128,13.582161495943248,33.07425774,46.65641923623315,481.53844553690504,579.6377080247055,-5.374045802,7.816793893129771,0.9770992366412213,-0.073463268,0.4047976011994003,0.10194902548725637
1.7089467752037354E12,2.25,-6.358695652,3.5543478260869565,3969.230769230769,128,128,13.577762076587925,33.08572507926525,46.663487155853176,481.5397437,579.6316498078883,-4.977099237,7.007633587786259,0.9923664122137404,-0.061469265,0.38980509745127434,0.094452774
1.7089467752232666E12,2.25,-6.380434783,3.5869565217391304,3969.230769230769,128,128,13.574660846550566,33.08435476831851,46.65901561486908,481.5411861587985,579.6390062140234,-5.86259542,6.854961832061068,0.9312977099236641,-0.070464768,0.383808096,0.098950525
1.7089467752427979E12,2.2717391304347827,-6.391304348,3.608695652173913,3945.7875457875457,128,128,13.578843901019562,33.087744484870974,46.666588385890535,481.5447201186085,579.6358328623572,-5.954198473,6.519083969465648,0.9923664122137404,-0.083958021,0.3823088455772114,0.10194902548725637
1.708946775262329E12,2.25,-6.434782609,3.5760869565217392,3969.230769230769,128,128,13.583459685261213,33.07836867313012,46.66182835839133,481.5480377135322,579.6335249702364,-5.664122137,6.198473282442748,1.083969465648855,-0.068965517,0.38980509745127434,0.10494752623688156
1.7089467752818604E12,2.2717391304347827,-6.413043478,3.5,3970.6959706959706,128,128,13.586777280184899,33.06401646900374,46.65079374918864,481.55323047080407,579.6470838364463,-5.404580153,6.259541984732824,0.7480916030534351,-0.068965517,0.4077961019490255,0.097451274
1.7089467753013916E12,2.25,-6.402173913,3.532608695652174,3967.7655677655675,128,128,13.580574820110181,33.065963752980686,46.646538573090865,481.55503351152345,579.6382128761069,-5.190839695,6.137404580152672,0.8549618320610687,-0.08095952,0.3823088455772114,0.094452774
1.7089467753209229E12,2.2717391304347827,-6.380434783,3.532608695652174,3970.6959706959706,128,128,13.58144027965549,33.060987360595156,46.642427640250645,481.5613802148557,579.6603542161411,-5.679389313,6.519083969465648,0.15267175572519084,-0.062968516,0.40629685157421286,0.092953523
1.708946775340454E12,2.282608695652174,-6.369565217,3.510869565217391,3947.252747252747,128,128,13.596297335183303,33.02103197825337,46.61732931343667,481.56015414716654,579.3035685185872,-5.603053435,6.671755725190839,0.5190839694656488,-0.08095952,0.4002998500749625,0.10194902548725637
1.7089467753599854E12,2.3043478260869565,-6.358695652,3.532608695652174,3970.6959706959706,128,128,13.593051861888393,33.05197215699818,46.64502401888657,481.5623177960298,579.6418910791745,-5.648854962,6.809160305343511,0.48854961832061067,-0.074962519,0.38830584707646176,0.10344827586206896
1.7089467753795166E12,2.2717391304347827,-6.358695652,3.532608695652174,3969.230769230769,128,128,13.583531806889988,33.050746089308994,46.63427789619898,481.5653469044384,579.6431892684924,-5.633587786,6.580152671755725,0.564885496,-0.073463268,0.3793103448275862,0.076461769
1.7089467753990479E12,2.282608695652174,-6.391304348,3.467391304347826,3945.7875457875457,128,128,13.588868807419397,33.036538128440164,46.62540693585956,481.5662123639837,579.6469395931888,-5.938931298,6.564885496183206,0.2595419847328244,-0.070464768,0.39430284857571213,0.085457271
1.708946775418579E12,2.3043478260869565,-6.423913043,3.4891304347826084,3969.230769230769,128,128,13.593917321433702,33.02968657370646,46.623603895140164,481.5691693507635,579.6606427026561,-6.41221374,5.740458015267175,0.21374045801526717,-0.08095952,0.4047976011994003,0.10494752623688156
1.7089467754381104E12,2.3152173913043477,-6.434782609,3.4456521739130435,3969.230769230769,128,128,13.58454150969285,33.02802777624462,46.61256928593747,481.5731360403462,579.6686482034503,-5.557251908,5.847328244274809,0.22900763358778625,-0.085457271,0.3988005997001499,0.098950525
1.7089467754576416E12,2.3152173913043477,-6.413043478,3.467391304347826,3969.230769230769,128,128,13.602571916886797,33.0167768,46.61934871904239,481.5727754322023,579.6540075128088,-4.824427481,6.137404580152672,0.183206107,-0.067466267,0.383808096,0.10344827586206896
1.7089467754771729E12,2.293478260869565,-6.402173913,3.4782608695652173,3967.7655677655675,128,128,13.583603928518764,33.032210830713616,46.61581475923238,481.5772469731864,579.6439104847801,-5.312977099,6.137404580152672,0.4580152671755725,-0.082458771,0.383808096,0.095952024
1.708946775496704E12,2.3043478260869565,-6.391304348,3.4565217391304346,3950.18315,128,128,13.59377307817615,33.01634407238294,46.61011715055909,481.5805645681101,579.6513390125441,-5.06870229,6.1679389312977095,0.4580152671755725,-0.070464768,0.383808096,0.10344827586206896
1.7089467755162354E12,2.3043478260869565,-6.391304348,3.4782608695652173,3967.7655677655675,128,128,13.594782780979012,33.02189743779868,46.61668021877769,481.58417064954887,579.6437662415226,-4.916030534,5.984732824427481,0.5801526717557252,-0.070464768,0.4017991004497751,0.10644677661169415
1.7089467755357666E12,2.3260869565217392,-6.423913043,3.467391304347826,3969.230769230769,128,128,13.598821592190456,33.00523734155147,46.604058933741925,481.58633429841217,579.6556663102706,-4.977099237,5.129770992366412,0.4580152671755725,-0.08095952,0.39280359820089955,0.089955022
1.7089467755552979E12,2.3260869565217392,-6.391304348,3.4565217391304346,3945.7875457875457,128,128,13.602716160144348,33.01057434208088,46.613290502225226,481.5891470419344,579.6460020120147,-4.183206107,5.572519083969466,-0.106870229,-0.065967016,0.39730134932533734,0.094452774
1.708946775574829E12,2.3260869565217392,-6.391304348,3.4456521739130435,3969.230769230769,128,128,13.600552511281075,33.049520021619806,46.65007253290088,481.59022886636603,579.6449923092118,-4.27480916,6.198473282442748,0.33587786259541985,-0.070464768,0.3988005997001499,0.11094452773613193
1.7089467755943604E12,2.3043478260869565,-6.391304348,3.4239130434782608,3969.230769230769,128,128,13.634305433548146,33.028676870903595,46.662982304451745,481.59311373151706,579.6630227164057,-4.671755725,6.213740458015267,0.8244274809160305,-0.076461769,0.4047976011994003,0.10494752623688156
1.7089467756138916E12,2.3043478260869565,-6.423913043,3.4130434782608696,3967.7655677655675,128,128,13.65291281,33.06574738809435,46.718660201866655,481.5968640562134,579.6454971606132,-4.320610687,5.9541984732824424,0.5801526717557252,-0.074962519,0.40629685157421286,0.092953523
1.7089467756334229E12,2.3369565217391304,-6.434782609,3.4239130434782608,3969.230769230769,128,128,13.619232013134004,33.011007071853534,46.63023908498754,481.59794588064506,579.6599214863684,-4.519083969,5.740458015267175,0.33587786259541985,-0.082458771,0.3988005997001499,0.092953523
1.708946775652954E12,2.3260869565217392,-6.423913043,3.402173913043478,3953.113553113553,128,128,13.59052760488124,32.96023344519538,46.550761050076616,481.6012634755687,579.6651864,-4.106870229,5.984732824427481,0.24427480916030533,-0.08095952,0.4047976011994003,0.094452774
1.7089467756724854E12,2.3260869565217392,-6.413043478,3.3478260869565215,3941.391941391941,128,128,13.59052760488124,32.96362316174784,46.55415076662908,481.60176832697016,579.6628784731482,-2.748091603,5.969465648854961,0.5801526717557252,-0.082458771,0.3988005997001499,0.088455772
1.7089467756920166E12,2.3478260869565215,-6.380434783,3.391304347826087,3969.230769230769,128,128,13.600408268023523,32.956699485385364,46.557107753408886,481.60385985420464,579.6679269871626,-2.610687023,5.343511450381679,0.366412214,-0.070464768,0.3988005997001499,0.11394302848575712
1.7089467757115479E12,2.3369565217391304,-6.391304348,3.4456521739130435,3944.322344322344,128,128,13.589013050676948,32.95251643091637,46.541529481593315,481.60335500280326,579.6563154049296,-3.06870229,5.465648854961832,0.091603053,-0.056971514,0.39730134932533734,0.10494752623688156
1.708946775731079E12,2.3369565217391304,-6.402173913,3.4565217391304346,3970.6959706959706,128,128,13.602716160144348,32.94963156576534,46.552347725909684,481.60660047609815,579.6722543,-2.854961832,5.221374045801526,0.21374045801526717,-0.073463268,0.3823088455772114,0.10194902548725637
1.7089467757506104E12,2.3478260869565215,-6.391304348,3.4565217391304346,3970.6959706959706,128,128,13.581945131056921,32.98677420458487,46.56871933564179,481.6091247331053,579.6907895434845,-2.534351145,6.137404580152672,0.2595419847328244,-0.070464768,0.39430284857571213,0.098950525
1.7089467757701416E12,2.358695652173913,-6.391304348,3.4456521739130435,3970.6959706959706,128,128,14.083190451048667,33.970008369685225,48.05319882073389,481.6037156109471,579.2808502055228,-1.801526718,6.351145038167939,0.732824427,-0.08095952,0.39730134932533734,0.086956522
1.7089467757896729E12,2.3369565217391304,-6.391304348,3.4239130434782608,3970.6959706959706,128,128,13.88406263399871,33.72652575093815,47.61058838493686,481.61013443590815,579.3292438184315,-2.916030534,6.061068702290076,1.0076335877862594,-0.08095952,0.4002998500749625,0.089955022
1.708946775809204E12,2.3043478260869565,-6.380434783,3.4130434782608696,3969.230769230769,128,128,13.652119475855766,32.768317791022994,46.42043726687876,481.6119374766276,579.7954380268382,-1.450381679,6.183206106870228,0.9007633587786259,-0.077961019,0.416791604,0.10344827586206896
1.7089467758287354E12,2.3152173913043477,-6.380434783,3.434782608695652,3969.230769230769,128,128,13.641733961312053,32.98641359644098,46.62814755775304,481.6079707870449,579.7277879390464,-3.465648855,7.358778625954198,1.2519083969465647,-0.068965517,0.4077961019490255,0.10194902548725637
1.7089467758482666E12,2.3478260869565215,-6.380434783,3.3804347826086953,3967.7655677655675,128,128,13.64555640763717,32.95496856629474,46.60052497393191,481.6100623142794,579.4223528411809,-2.519083969,7.6183206106870225,1.1755725190839694,-0.083958021,0.39730134932533734,0.10494752623688156
1.7089467758677979E12,2.358695652173913,-6.347826087,3.4239130434782608,3944.322344322344,128,128,13.644546704834308,32.97905719030585,46.623603895140164,481.6117932,579.7239654927213,-3.267175573,8.381679389312977,1.6030534351145038,-0.062968516,0.39430284857571213,0.098950525
1.708946775887329E12,2.3369565217391304,-6.336956522,3.4239130434782608,3970.6959706959706,128,128,13.651686746083112,32.984682677350364,46.63636942343348,481.61027867916573,579.7342788856363,-3.801526718,8.244274809160306,1.5572519083969465,-0.074962519,0.40629685157421286,0.10344827586206896
1.7089467759068604E12,2.3152173913043477,-6.369565217,3.4130434782608696,3969.230769230769,128,128,13.683420262744459,32.98439419083526,46.66781445357972,481.6094132196204,579.7557711310114,-4.992366412,7.557251908396946,1.8931297709923662,-0.074962519,0.41379310344827586,0.095952024
1.7089467759263916E12,2.282608695652174,-6.434782609,3.391304347826087,3967.7655677655675,128,128,13.689983330963056,32.994419097235095,46.684402428198155,481.60587925981037,579.7621178343437,-5.328244275,5.908396946564885,1.7251908396946565,-0.085457271,0.38830584707646176,0.092953523
1.7089467759459229E12,2.260869565217391,-6.413043478,3.3260869565217392,3944.322344322344,128,128,13.71782227967051,32.99456334049265,46.71238562016316,481.6049416786363,579.7768306466139,-4.061068702,6.152671755725191,1.2671755725190839,-0.074962519,0.39430284857571213,0.085457271
1.708946775965454E12,2.3260869565217392,-6.358695652,3.358695652173913,3969.230769230769,128,128,13.778115961327073,33.01165616651251,46.78977212783958,481.6071053274996,579.7943562024064,-4.045801527,6.824427480916031,1.114503816793893,-0.073463268,0.38530734632683655,0.097451274
1.7089467759849854E12,2.3478260869565215,-6.369565217,3.4130434782608696,3969.230769230769,128,128,13.83213506128014,33.01381981537578,46.845954876655924,481.6086198817039,579.8102950823659,-4.061068702,7.2824427480916025,1.5114503816793892,-0.073463268,0.38980509745127434,0.097451274
1.7089467760045166E12,2.3152173913043477,-6.369565217,3.434782608695652,3969.230769230769,128,128,13.888317810096481,33.05824673870167,46.94656454879815,481.60955746287794,579.8105836,-3.954198473,7.114503816793893,1.3129770992366412,-0.083958021,0.41079460269865065,0.097451274
1.7089467760240479E12,2.2717391304347827,-6.413043478,3.4239130434782608,3945.7875457875457,128,128,13.901948797935106,33.09574998566508,46.997698783600185,481.6073216923859,579.7869997962713,-4.625954198,7.480916030534351,1.4809160305343512,-0.074962519,0.383808096,0.10644677661169415
1.708946776043579E12,2.282608695652174,-6.402173913,3.4239130434782608,3969.230769230769,128,128,13.771192284964597,33.105270040663484,46.87646232562808,481.60955746287794,579.7060793287849,-4.488549618,6.961832061068702,1.3740458015267174,-0.062968516,0.38830584707646176,0.095952024
1.7089467760631104E12,2.293478260869565,-6.380434783,3.402173913043478,3969.230769230769,128,128,13.679309329904239,33.05637158,46.73568090625774,481.60955746287794,579.6857410294701,-3.893129771,6.977099236641221,0.916030534,-0.08095952,0.3823088455772114,0.10194902548725637
1.7089467760826416E12,2.293478260869565,-6.413043478,3.3804347826086953,3967.7655677655675,128,128,13.632502392828751,32.99744820564368,46.62995059847243,481.60926897636284,579.6889865,-4.091603053,6.992366412,1.1450381679389312,-0.076461769,0.4077961019490255,0.094452774
1.7089467761021729E12,2.293478260869565,-6.402173913,3.3804347826086953,3945.7875457875457,128,128,13.634521798434474,32.964632864550694,46.59915466298517,481.6084756384463,579.3311189807796,-3.740458015,7.358778625954198,1.3282442748091603,-0.074962519,0.3988005997001499,0.10644677661169415
1.708946776121704E12,2.282608695652174,-6.445652174,3.4239130434782608,3958.974358974359,128,128,13.61843867521747,32.99586152981062,46.61430020502809,481.60746593564346,579.6707397306848,-4.152671756,7.786259541984733,1.2213740458015268,-0.074962519,0.39430284857571213,0.092953523
1.7089467761412354E12,2.282608695652174,-6.413043478,3.3478260869565215,3969.230769230769,128,128,13.616635634498076,32.99348151606102,46.61011715055909,481.6063841112118,579.6764373,-4.183206107,7.145038167938931,0.8702290076335878,-0.074962519,0.3913043478260869,0.098950525
1.7089467761607666E12,2.293478260869565,-6.402173913,3.4565217391304346,3969.230769230769,128,128,13.611803485370098,32.99766457053001,46.60946805590011,481.60479743537877,579.6711003388286,-4.259541985,7.3893129770992365,0.7633587786259541,-0.073463268,0.4077961019490255,0.094452774
1.7089467761802979E12,2.3152173913043477,-6.413043478,3.3369565217391304,3945.7875457875457,128,128,13.616851999384403,32.99816942193144,46.615021421315845,481.60587925981037,579.6871834620456,-2.992366412,7.145038167938931,0.7786259541984732,-0.070464768,0.3913043478260869,0.092953523
1.708946776199829E12,2.2717391304347827,-6.358695652,3.3804347826086953,3970.6959706959706,128,128,13.62226112154259,33.007617355301065,46.62987847684366,481.60775442215856,579.6839379887507,-4.366412214,7.908396946564885,0.9770992366412213,-0.074962519,0.3988005997001499,0.092953523
1.7089467762193604E12,2.282608695652174,-6.358695652,3.3804347826086953,3969.230769230769,128,128,13.620962932224625,33.01288223,46.633845166426326,481.6049416786363,579.6755718798128,-3.282442748,7.587786259541985,0.9007633587786259,-0.070464768,0.40929535232383807,0.10344827586206896
1.7089467762388916E12,2.282608695652174,-6.423913043,3.3804347826086953,3967.7655677655675,128,128,13.614399864006026,33.02636897878278,46.64076884,481.60299439465933,579.6783846,-3.358778626,6.687022900763359,0.8549618320610687,-0.074962519,0.38830584707646176,0.11094452773613193
1.7089467762584229E12,2.293478260869565,-6.445652174,3.4130434782608696,3969.230769230769,128,128,13.618078067073592,33.02016651870806,46.63824458578165,481.60191257022774,579.6774470421609,-3.709923664,7.267175572519084,0.8244274809160305,-0.08095952,0.39280359820089955,0.10494752623688156
1.708946776277954E12,2.2717391304347827,-6.456521739,3.402173913043478,3958.974358974359,128,128,13.61519320192256,33.02016651870806,46.63535972063062,481.60061438090975,579.6664846,-2.625954198,7.786259541984733,0.8549618320610687,-0.077961019,0.40629685157421286,0.095952024
1.7089467762974854E12,2.3152173913043477,-6.456521739,3.434782608695652,3969.230769230769,128,128,13.621467783626056,33.00970888253556,46.63117666616162,481.5983786104177,579.6615802838303,-2.534351145,7.8473282442748085,1.0076335877862594,-0.073463268,0.4077961019490255,0.10794602698650674
1.7089467763170166E12,2.3043478260869565,-6.434782609,3.402173913043478,3969.230769230769,128,128,13.614544107263578,33.012882234201705,46.62742634146528,481.59664769132706,579.6690809,-1.923664122,8.106870229007633,0.732824427,-0.073463268,0.38980509745127434,0.089955022
1.7089467763365479E12,2.25,-6.380434783,3.402173913043478,3944.322344322344,128,128,13.61742897241461,33.00011670590839,46.61754568,481.59909982670547,579.6828561643191,-1.877862595,8,1.0229007633587786,-0.08095952,0.3748125937031484,0.10794602698650674
1.708946776356079E12,2.282608695652174,-6.380434783,3.369565217391304,3970.6959706959706,128,128,13.619664742906659,32.98302387988853,46.602688622795185,481.5967198129559,579.3689828358869,-1.633587786,7.541984732824427,1.0229007633587786,-0.065967016,0.4047976011994003,0.089955022
1.7089467763756104E12,2.3152173913043477,-6.380434783,3.391304347826087,3967.7655677655675,128,128,13.60423071434864,33.00062155730982,46.60485227165846,481.59556586689547,579.6680712304201,-2.015267176,7.251908396946565,1.0534351145038168,-0.061469265,0.39280359820089955,0.10794602698650674
1.7089467763951416E12,2.3260869565217392,-6.391304348,3.402173913043478,3967.7655677655675,128,128,13.607981039044981,32.99766457053001,46.60564560957499,481.5959985966681,579.6654027301554,-1.801526718,7.435114503816793,0.9312977099236641,-0.077961019,0.3913043478260869,0.098950525
1.7089467764146729E12,2.3152173913043477,-6.434782609,3.434782608695652,3969.230769230769,128,128,13.603870106204761,32.99578940818184,46.59965951,481.58986825822217,579.6620851352317,-1.526717557,7.526717557251908,0.7786259541984732,-0.074962519,0.39430284857571213,0.10644677661169415
1.708946776434204E12,2.293478260869565,-6.402173913,3.434782608695652,3969.230769230769,128,128,13.60149009245516,32.99138998882652,46.59288008128168,481.5910222042826,579.6656190950417,-2.122137405,7.679389312977099,1.1603053435114503,-0.074962519,0.38830584707646176,0.10344827586206896
1.7089467764537354E12,2.293478260869565,-6.423913043,3.4456521739130435,3969.230769230769,128,128,13.58829183438919,32.996582746098376,46.584874580487565,481.59296948825954,579.6710282171998,-1.58778626,7.099236641221374,0.8396946564885496,-0.073463268,0.39280359820089955,0.11544227886056971
1.7089467764732666E12,2.282608695652174,-6.413043478,3.434782608695652,3969.230769230769,128,128,13.594782780979012,32.99131786719774,46.58610064817675,481.59282524500196,579.6757882446991,-1.618320611,7.206106870229007,1.083969465648855,-0.068965517,0.39280359820089955,0.10194902548725637
1.7089467764927979E12,2.282608695652174,-6.402173913,3.391304347826087,3944.322344322344,128,128,13.60423071434864,32.99636638121205,46.60059709556069,481.58741612284376,579.6654027301554,-0.839694656,7.190839694656488,0.7938931297709924,-0.076461769,0.39730134932533734,0.10194902548725637
1.708946776512329E12,2.3152173913043477,-6.402173913,3.402173913043478,3970.6959706959706,128,128,13.596369456812079,33.05608309,46.65245254665048,481.5859015686395,579.6423238089471,-0.335877863,7.2824427480916025,0.7786259541984732,-0.083958021,0.39730134932533734,0.097451274
1.7089467765318604E12,2.3043478260869565,-6.391304348,3.434782608695652,3969.230769230769,128,128,13.629545406048944,33.049736386506126,46.679281792555074,481.5855409604956,579.6601378512547,0.42748091603053434,7.099236641221374,0.8244274809160305,-0.076461769,0.39280359820089955,0.10194902548725637
1.7089467765513916E12,2.2717391304347827,-6.402173913,3.4782608695652173,3967.7655677655675,128,128,13.638849096161021,33.03487933097831,46.67372842713934,481.5849639874654,579.6450644308405,0.6259541984732824,7.038167938931298,1.0076335877862594,-0.08095952,0.4047976011994003,0.11244377811094453
1.7089467765709229E12,2.3043478260869565,-6.467391304,3.5543478260869565,3970.6959706959706,128,128,13.609134985105394,33.00249671965799,46.61163170476338,481.5810694195115,579.6565318,-0.244274809,7.114503816793893,1.0534351145038168,-0.076461769,0.39730134932533734,0.10494752623688156
1.708946776590454E12,2.282608695652174,-6.456521739,3.5652173913043477,3970.6959706959706,128,128,13.583964536662643,32.93693816,46.52090269576344,481.5814300276554,579.6786009882213,-2.534351145,7.038167938931298,1.083969465648855,-0.074962519,0.3988005997001499,0.08095952
1.7089467766099854E12,2.2717391304347827,-6.369565217,3.543478260869565,3969.230769230769,128,128,13.584829996207953,32.92121564402767,46.50604564023562,481.58157427091294,579.3578761050554,-2.885496183,6.992366412,1.083969465648855,-0.073463268,0.38980509745127434,0.10194902548725637
1.7089467766295166E12,2.260869565217391,-6.326086957,3.5,3969.230769230769,128,128,13.573002049088723,32.948982471106355,46.521984520195076,481.5794106220497,579.6684318,-2.595419847,7.206106870229007,0.916030534,-0.088455772,0.4002998500749625,0.11544227886056971
1.7089467766490479E12,2.282608695652174,-6.336956522,3.4891304347826084,3944.322344322344,128,128,13.577834198216701,32.94768428178839,46.52551848000509,481.5768863650425,579.6674942573899,-2.763358779,7.083969465648854,0.9465648854961831,-0.070464768,0.40629685157421286,0.092953523
1.708946776668579E12,2.293478260869565,-6.369565217,3.4456521739130435,3970.6959706959706,128,128,13.569540210907485,32.966291662012544,46.53583187292003,481.5769584866713,579.6768700691307,-1.984732824,6.992366412,0.6717557251908397,-0.083958021,0.4002998500749625,0.097451274
1.7089467766881104E12,2.2717391304347827,-6.402173913,3.4565217391304346,3967.7655677655675,128,128,13.613895012604596,33.14349450391466,46.757389516519254,481.5769584866713,579.6565318,-1.526717557,6.564885496183206,0.8091603053435115,-0.070464768,0.39430284857571213,0.098950525
1.7089467767076416E12,2.293478260869565,-6.434782609,3.5,3967.7655677655675,128,128,14.022536161248228,33.98436057,48.006896735059826,481.5740014998915,579.2140655772764,-1.374045802,6.6106870229007635,0.7480916030534351,-0.067466267,0.416791604,0.10344827586206896
1.7089467767271729E12,2.3043478260869565,-6.423913043,3.5,3969.230769230769,128,128,13.763980122087018,33.14248480111179,46.90646492319881,481.5727754322023,579.5700579369137,-1.34351145,6.946564885496183,0.564885496,-0.077961019,0.3988005997001499,0.092953523
1.708946776746704E12,2.3043478260869565,-6.413043478,3.5652173913043477,3961.9047619047615,128,128,13.642383055971035,32.943212740804285,46.58559579677532,481.57025117519515,579.7138684646927,-0.763358779,6.381679389312977,0.6870229007633587,-0.074962519,0.3913043478260869,0.098950525
1.7089467767662354E12,2.2717391304347827,-6.402173913,3.652173913043478,3967.7655677655675,128,128,13.628319338359756,33.005237341551464,46.63355667991122,481.5671499451578,579.7060793287849,-1.603053435,7.0534351145038165,0.9465648854961831,-0.089955022,0.4017991004497751,0.088455772
1.7089467767857666E12,2.260869565217391,-6.391304348,3.5543478260869565,3969.230769230769,128,128,13.629329041162617,32.98763966413017,46.61696870529279,481.56556326932474,579.6826397994328,-2.061068702,7.312977099236641,0.7022900763358778,-0.070464768,0.38830584707646176,0.10644677661169415
1.7089467768052979E12,2.3043478260869565,-6.380434783,3.5,3945.7875457875457,128,128,13.639570312448779,32.99001967787977,46.629589990328554,481.5638323502341,579.6960544,-1.007633588,7.129770992366412,0.7022900763358778,-0.073463268,0.3748125937031484,0.11544227886056971
1.708946776824829E12,2.293478260869565,-6.336956522,3.4891304347826084,3970.6959706959706,128,128,13.639498190820003,33.01252162605782,46.652019816877825,481.5637602286053,579.6925925842038,0.366412214,7.541984732824427,0.7633587786259541,-0.077961019,0.3913043478260869,0.085457271
1.7089467768443604E12,2.282608695652174,-6.336956522,3.532608695652174,3967.7655677655675,128,128,13.65514858426435,33.01519012632252,46.670338710586876,481.5626784041737,579.6952610844685,-0.961832061,7.541984732824427,0.7633587786259541,-0.065967016,0.4002998500749625,0.097451274
1.7089467768638916E12,2.25,-6.402173913,3.5543478260869565,3966.300366300366,128,128,13.70498462974842,32.99182271859917,46.69680734834759,481.5616687013708,579.3623476460394,-1.572519084,5.9541984732824424,0.7633587786259541,-0.067466267,0.3913043478260869,0.092953523
1.7089467768834229E12,2.260869565217391,-6.434782609,3.5760869565217392,3942.8571428571427,128,128,13.720130171791336,33.02261865408643,46.74274882587777,481.5616687013708,579.7279322,-1.755725191,5.297709923664122,0.5343511450381679,-0.077961019,0.3913043478260869,0.10344827586206896
1.708946776902954E12,2.3043478260869565,-6.413043478,3.5869565217391304,3963.369963369963,128,128,13.769821974017857,33.04901517021837,46.81883714423623,481.5540238087206,579.7681039295321,-1.419847328,5.526717557251908,0.5038167938931297,-0.074962519,0.3913043478260869,0.095952024
1.7089467769224854E12,2.3260869565217392,-6.402173913,3.619565217391304,3967.7655677655675,128,128,13.818359830183963,33.06214130665556,46.88050113683953,481.5551056331522,579.7810858227117,-0.79389313,5.648854961832061,0.6259541984732824,-0.08095952,0.4077961019490255,0.10194902548725637
1.7089467769420166E12,2.282608695652174,-6.391304348,3.5978260869565215,3967.7655677655675,128,128,13.865815861918433,33.11767496081292,46.983490822731355,481.55330259243283,579.7787779305909,-0.763358779,5.3893129770992365,0.8549618320610687,-0.098950525,0.39280359820089955,0.086956522
1.7089467769615479E12,2.282608695652174,-6.391304348,3.5760869565217392,3942.8571428571427,128,128,13.840284805331803,33.16686191163801,47.007146716969814,481.55532199803855,579.7092526804511,-1.465648855,5.755725190839694,0.6259541984732824,-0.067466267,0.40629685157421286,0.098950525
1.708946776981079E12,2.3043478260869565,-6.391304348,3.5869565217391304,3970.6959706959706,128,128,13.70909556258864,33.12337256948621,46.83246813207485,481.5504177272818,579.6494639,-1.099236641,5.9541984732824424,0.5801526717557252,-0.074962519,0.3988005997001499,0.095952024
1.7089467770006104E12,2.3260869565217392,-6.358695652,3.5978260869565215,3969.230769230769,128,128,13.642960029001241,33.07079590210866,46.71375593,481.54875892981994,579.6330922404638,-0.152671756,5.770992366412213,0.15267175572519084,-0.083958021,0.4002998500749625,0.11244377811094453
1.7089467770201416E12,2.3043478260869565,-6.358695652,3.6304347826086953,3969.230769230769,128,128,13.622477486428917,33.027162316699304,46.649639803128224,481.5468837674718,579.6359771056149,-1.099236641,5.633587786259541,0.33587786259541985,-0.076461769,0.39730134932533734,0.086956522
1.7089467770396729E12,2.3369565217391304,-6.391304348,3.641304347826087,3969.230769230769,128,128,13.61605866146787,33.01396405863334,46.63002272010121,481.54493648349484,579.6391505,-1.969465649,6,0.5343511450381679,-0.077961019,0.3913043478260869,0.095952024
1.708946777059204E12,2.3043478260869565,-6.413043478,3.652173913043478,3963.369963369963,128,128,13.608197403931309,33.00797796344495,46.61617536737626,481.54551345652504,579.6450644308405,-1.770992366,5.755725190839694,0.41221374045801523,-0.073463268,0.39280359820089955,0.11244377811094453
1.7089467770787354E12,2.293478260869565,-6.391304348,3.652173913043478,3969.230769230769,128,128,13.604302835977416,33.01273799094415,46.61704082692157,481.5419073750863,579.6605705810274,-1.740458015,5.908396946564885,0.549618321,-0.088455772,0.4047976011994003,0.097451274
1.7089467770982666E12,2.3260869565217392,-6.402173913,3.641304347826087,3969.230769230769,128,128,13.608413768817636,33.01295435583048,46.621368124648114,481.54183525345746,579.6545123642102,-1.679389313,5.893129770992366,0.5343511450381679,-0.08095952,0.4047976011994003,0.094452774
1.7089467771177979E12,2.3152173913043477,-6.369565217,3.608695652173913,3942.8571428571427,128,128,13.61245258002908,33.007040382270866,46.619492962299944,481.5397437,579.3670355519099,-2.030534351,6.3969465648854955,0.564885496,-0.088455772,0.38980509745127434,0.094452774
1.708946777137329E12,2.282608695652174,-6.336956522,3.641304347826087,3969.230769230769,128,128,13.616419269611749,33.01879620776132,46.635215477373066,481.53988796948056,579.6545123642102,-1.450381679,7.328244275,0.2900763358778626,-0.068965517,0.38980509745127434,0.094452774
1.7089467771568604E12,2.3260869565217392,-6.347826087,3.619565217391304,3967.7655677655675,128,128,13.61930413476278,33.01317072071681,46.632474855479586,481.5397437,579.6524929586045,-1.435114504,6.854961832061068,0.7175572519083969,-0.076461769,0.4002998500749625,0.097451274
1.7089467771763916E12,2.3152173913043477,-6.358695652,3.6304347826086953,3967.7655677655675,128,128,13.609423471620497,33.032932047001374,46.64235551862187,481.5364982529281,579.6567481347023,-2.091603053,6.809160305343511,1.083969465648855,-0.073463268,0.4002998500749625,0.10494752623688156
1.7089467771959229E12,2.3043478260869565,-6.380434783,3.6630434782608696,3967.7655677655675,128,128,13.609351349991721,33.03271568211505,46.642067032106766,481.5410419,579.6535747830361,-2.65648855,6.931297709923664,0.9007633587786259,-0.073463268,0.4047976011994003,0.089955022
1.708946777215454E12,2.3043478260869565,-6.402173913,3.684782608695652,3969.230769230769,128,128,13.613750769347044,33.02737868158564,46.64112945093268,481.5377964,579.6565318,-2.748091603,6.961832061068702,1.2213740458015268,-0.073463268,0.4047976011994003,0.10494752623688156
1.7089467772349854E12,2.3369565217391304,-6.380434783,3.684782608695652,3966.300366300366,128,128,13.613967134233372,33.02867687,46.64264400513697,481.5369309827007,579.6512668909153,-2.458015267,7.114503816793893,0.9312977099236641,-0.067466267,0.3913043478260869,0.10644677661169415
1.7089467772545166E12,2.3152173913043477,-6.380434783,3.652173913043478,3966.300366300366,128,128,13.611442877226219,33.02182532,46.63326819339612,481.53714734758705,579.6554499453842,-1.86259542,7.129770992366412,1.2366412213740459,-0.08095952,0.4047976011994003,0.10494752623688156
1.7089467772740479E12,2.3043478260869565,-6.369565217,3.684782608695652,3942.8571428571427,128,128,13.606033755068035,33.01814711310234,46.62418086817037,481.53685886107195,579.6655469734129,-2.198473282,7.740458015267175,1.2519083969465647,-0.076461769,0.39280359820089955,0.097451274
1.708946777293579E12,2.3043478260869565,-6.358695652,3.6304347826086953,3969.230769230769,128,128,13.609639836506824,33.011511923254965,46.62115175976179,481.5332527796332,579.6670615276172,-2.396946565,8.198473282442748,1.1755725190839694,-0.083958021,0.38980509745127434,0.10494752623688156
1.7089467773131104E12,2.260869565217391,-6.336956522,3.652173913043478,3969.230769230769,128,128,13.601634335712712,33.004299760377386,46.605934096090095,481.5345509689511,579.6623736217467,-2.625954198,7.603053435114504,1.1755725190839694,-0.08095952,0.41079460269865065,0.083958021
1.7089467773326416E12,2.282608695652174,-6.336956522,3.652173913043478,3967.7655677655675,128,128,13.61245258002908,32.99160635371285,46.604058933741925,481.5328200498605,579.6576135942476,-2.824427481,7.480916030534351,1.0229007633587786,-0.074962519,0.3913043478260869,0.095952024
1.7089467773521729E12,2.260869565217391,-6.347826087,3.684782608695652,3967.7655677655675,128,128,13.597811889387595,33.00581431458168,46.60362620396927,481.5323873200879,579.6584790537929,-3.251908397,6.900763358778626,0.9312977099236641,-0.077961019,0.3913043478260869,0.10344827586206896
1.708946777371704E12,2.217391304347826,-6.380434783,3.6630434782608696,3969.230769230769,128,128,13.616996242641955,32.97307109511747,46.59006733775942,481.5344067256936,579.3309747375221,-3.58778626,6.442748091603053,0.5954198473282443,-0.077961019,0.3988005997001499,0.092953523
1.7089467773912354E12,2.2282608695652173,-6.347826087,3.7065217391304346,3967.7655677655675,128,128,13.611370755597443,33.00163126011268,46.61300201571012,481.53188246868643,579.6600657296259,-3.908396947,6.351145038167939,0.061068702290076333,-0.070464768,0.40929535232383807,0.088455772
1.7089467774107666E12,2.217391304347826,-6.336956522,3.6630434782608696,3969.230769230769,128,128,13.611803485370098,32.99766457053001,46.60946805590011,481.5362098,579.6611475540576,-4.396946565,6.183206106870228,-0.045801527,-0.074962519,0.4017991004497751,0.098950525
1.7089467774302979E12,2.260869565217391,-6.380434783,3.652173913043478,3945.7875457875457,128,128,13.613390161203165,32.99102938068264,46.604419541885804,481.5325315633454,579.6599936079972,-4.595419847,6.213740458015267,-0.198473282,-0.089955022,0.40629685157421286,0.095952024
1.708946777449829E12,2.3043478260869565,-6.391304348,3.619565217391304,3970.6959706959706,128,128,13.620674445709522,32.99319302954591,46.61386747525543,481.5328200498605,579.6598493647397,-4.381679389,5.709923664122138,-0.305343511,-0.08095952,0.4002998500749625,0.10494752623688156
1.7089467774693604E12,2.3152173913043477,-6.402173913,3.6304347826086953,3969.230769230769,128,128,13.617645337300937,32.98980331299345,46.60744865029439,481.53419036080726,579.6572529861037,-4.076335878,6.6106870229007635,0.10687022900763359,-0.083958021,0.4047976011994003,0.089955022
1.7089467774888916E12,2.3369565217391304,-6.413043478,3.6630434782608696,3967.7655677655675,128,128,13.612813188172959,32.98807239390283,46.60088558207579,481.5338297526634,579.6626621082619,-3.908396947,6.488549618320611,0.2595419847328244,-0.088455772,0.38980509745127434,0.10194902548725637
1.7089467775084229E12,2.380434782608696,-6.369565217,3.6630434782608696,3969.230769230769,128,128,13.621107175482177,32.98648571806976,46.60759289355194,481.5313054956562,579.6475886878477,-3.847328244,6.442748091603053,0.21374045801526717,-0.067466267,0.3988005997001499,0.098950525
1.708946777527954E12,2.402173913043478,-6.369565217,3.6630434782608696,3945.7875457875457,128,128,13.62240536480014,32.98324024477485,46.60564560957499,481.5318103470577,579.6614360405727,-4.167938931,6.824427480916031,0.4427480916030534,-0.070464768,0.3988005997001499,0.088455772
1.7089467775474854E12,2.3478260869565215,-6.380434783,3.6739130434782608,3967.7655677655675,128,128,13.62413628389076,32.97732627121523,46.601462555105996,481.53541642849643,579.6576857158764,-4.27480916,7.007633587786259,0.47328244274809156,-0.076461769,0.3748125937031484,0.10194902548725637
1.7089467775670166E12,2.3369565217391304,-6.358695652,3.684782608695652,3967.7655677655675,128,128,13.61158712048377,32.99600577306817,46.60759289355194,481.5364982529281,579.6659075815568,-4.824427481,7.465648854961832,0.8091603053435115,-0.067466267,0.40629685157421286,0.095952024
1.7089467775865479E12,2.3369565217391304,-6.358695652,3.6630434782608696,3942.8571428571427,128,128,13.616996242641955,32.977398392844016,46.59439463548597,481.5362098,579.6581184,-5.496183206,8.030534351145038,0.549618321,-0.085457271,0.40629685157421286,0.092953523
1.708946777606079E12,2.3260869565217392,-6.380434783,3.5978260869565215,3969.230769230769,128,128,13.62875206813241,32.99276029977325,46.621512367905666,481.53952736133664,579.6532862965211,-5.603053435,7.1603053435114505,0.47328244274809156,-0.068965517,0.4077961019490255,0.094452774
1.7089467776256104E12,2.3152173913043477,-6.369565217,3.5869565217391304,3967.7655677655675,128,128,13.636829690555299,33.023051383859084,46.659881074414386,481.5405370641395,579.3093382488893,-5.58778626,6.900763358778626,0.32061068702290074,-0.074962519,0.41379310344827586,0.070464768
1.7089467776451416E12,2.3260869565217392,-6.369565217,3.6304347826086953,3966.300366300366,128,128,13.682843289714253,33.036393885182605,46.71923717489686,481.54154676694236,579.6419632008033,-5.603053435,6.412213740458015,0.24427480916030533,-0.074962519,0.38830584707646176,0.095952024
1.7089467776646729E12,2.358695652173913,-6.369565217,3.6304347826086953,3967.7655677655675,128,128,13.66387530134622,33.01353132886068,46.67740663,481.54623467281283,579.6672057708747,-6.106870229,6.8396946564885495,0.13740458015267176,-0.074962519,0.3988005997001499,0.10644677661169415
1.708946777684204E12,2.3043478260869565,-6.423913043,3.641304347826087,3966.300366300366,128,128,13.628030851844652,32.976460811669924,46.60449166351458,481.5437825374344,579.6840822320083,-6.259541985,6.519083969465648,0.3053435114503817,-0.083958021,0.39280359820089955,0.097451274
1.7089467777037354E12,2.217391304347826,-6.423913043,3.5869565217391304,3964.8351648351645,128,128,13.620169594308091,32.93902968633529,46.559199280643384,481.5492637812214,579.6806203938271,-7.358778626,5.648854961832061,0.41221374045801523,-0.073463268,0.4047976011994003,0.097451274
1.7089467777232666E12,2.2391304347826084,-6.402173913,3.543478260869565,3967.7655677655675,128,128,13.624064162261984,32.93405329394976,46.55811745621175,481.5536632005767,579.6773749205321,-6.65648855,6.183206106870228,0.2595419847328244,-0.083958021,0.39730134932533734,0.10194902548725637
1.7089467777427979E12,2.3043478260869565,-6.369565217,3.5760869565217392,3942.8571428571427,128,128,13.622188999913813,32.93852483493386,46.560713834847675,481.55387956546303,579.6748507,-6.27480916,6.137404580152672,0.091603053,-0.085457271,0.3913043478260869,0.10344827586206896
1.708946777762329E12,2.282608695652174,-6.391304348,3.5543478260869565,3970.6959706959706,128,128,13.634305433548146,32.92893265830668,46.56323809185483,481.55863959296227,579.6847313266672,-7.557251908,5.9541984732824424,-0.13740458,-0.073463268,0.4002998500749625,0.11244377811094453
1.7089467777818604E12,2.293478260869565,-6.423913043,3.532608695652174,3967.7655677655675,128,128,13.611226512339892,32.943861835463274,46.555088347803164,481.5584232280759,579.7211527491991,-7.480916031,5.450381679389313,-0.045801527,-0.070464768,0.40629685157421286,0.10344827586206896
1.7089467778013916E12,2.3152173913043477,-6.391304348,3.510869565217391,3969.230769230769,128,128,13.906131852404101,33.47424429348043,47.38037614588453,481.55863959296227,579.5184909723391,-7.022900763,5.343511450381679,-0.152671756,-0.074962519,0.41379310344827586,0.088455772
1.7089467778209229E12,2.293478260869565,-6.413043478,3.5217391304347827,3969.230769230769,128,128,14.230895546781486,34.199787878964884,48.43068342574637,481.5620293095147,579.0430652,-7.099236641,5.1603053435114505,-0.503816794,-0.08095952,0.4002998500749625,0.11544227886056971
1.708946777840454E12,2.3260869565217392,-6.456521739,3.4456521739130435,3970.6959706959706,128,128,13.692796074485312,32.79817614533617,46.49097221982148,481.5665008504988,579.7819512822571,-6.748091603,5.022900763358779,-0.396946565,-0.074962519,0.38830584707646176,0.098950525
1.7089467778599854E12,2.3260869565217392,-6.423913043,3.5217391304347827,3967.7655677655675,128,128,13.683348141115683,32.97941779844973,46.66276593956542,481.5696020805362,579.7580790231323,-6.198473282,5.221374045801526,-0.396946565,-0.070464768,0.38830584707646176,0.08095952
1.7089467778795166E12,2.358695652173913,-6.434782609,3.4130434782608696,3967.7655677655675,128,128,13.682626924827925,32.94725155201573,46.62987847684366,481.5733524052325,579.4980084297667,-6.977099237,5.786259541984733,-0.610687023,-0.089955022,0.3988005997001499,0.095952024
1.7089467778990479E12,2.3369565217391304,-6.380434783,3.4239130434782608,3944.322344322344,128,128,13.67397232937483,32.957925553074546,46.63189788244938,481.57436210803536,579.7698348486227,-6.167938931,4.763358778625954,-0.717557252,-0.083958021,0.39730134932533734,0.097451274
1.708946777918579E12,2.369565217391304,-6.369565217,3.391304347826087,3970.6959706959706,128,128,13.69041606073571,32.95482432303719,46.64524038,481.5804203248525,579.7763979168413,-4.473282443,6,-0.503816794,-0.077961019,0.40629685157421286,0.11094452773613193
1.7089467779381104E12,2.4239130434782608,-6.380434783,3.467391304347826,3969.230769230769,128,128,13.706138575808833,32.962036485914766,46.66817506,481.5817185141705,579.7898846614223,-5.618320611,5.099236641221374,-0.290076336,-0.076461769,0.4002998500749625,0.10794602698650674
1.7089467779576416E12,2.4130434782608696,-6.434782609,3.4782608695652173,3969.230769230769,128,128,13.722365942283385,32.97054683811031,46.69291278,481.58597369026825,579.7939955942626,-7.740458015,4.534351145038168,-0.320610687,-0.073463268,0.39280359820089955,0.086956522
1.7089467779771729E12,2.4347826086956523,-6.467391304,3.434782608695652,3969.230769230769,128,128,13.755686134777802,32.98179781219933,46.737483946977136,481.58741612284376,579.8141896503198,-6.351145038,3.2671755725190836,-0.045801527,-0.062968516,0.3913043478260869,0.095952024
1.708946777996704E12,2.4130434782608696,-6.445652174,3.3804347826086953,3969.230769230769,128,128,13.79701182806633,32.977831122616664,46.774842950682995,481.58489186583665,579.8288303409613,-5.282442748,4.076335877862595,-0.564885496,-0.074962519,0.3913043478260869,0.098950525
1.7089467780162354E12,2.391304347826087,-6.413043478,3.358695652173913,3967.7655677655675,128,128,13.856151563662477,33.01490163980742,46.8710532,481.58698339307114,579.8628717497435,-5.190839695,4.519083969465648,-0.564885496,-0.077961019,0.40629685157421286,0.092953523
1.7089467780357666E12,2.402173913043478,-6.347826087,3.391304347826087,3967.7655677655675,128,128,13.90238152770776,33.03084051976687,46.93322204747463,481.5897240149646,579.8674875339851,-4.290076336,4.7328244274809155,-0.473282443,-0.073463268,0.4002998500749625,0.097451274
1.7089467780552979E12,2.4347826086956523,-6.380434783,3.358695652173913,3942.8571428571427,128,128,13.937072031148915,33.07007469,47.007146716969814,481.5920319070854,579.851765,-5.297709924,4.5038167938931295,-0.015267176,-0.056971514,0.4002998500749625,0.089955022
1.708946778074829E12,2.4130434782608696,-6.380434783,3.391304347826087,3969.230769230769,128,128,13.861488564191886,33.12979139444725,46.99127995863914,481.5972967859861,579.7800761199088,-5.572519084,5.1603053435114505,0.24427480916030533,-0.076461769,0.4002998500749625,0.10194902548725637
1.7089467780943604E12,2.4130434782608696,-6.402173913,3.402173913043478,3969.230769230769,128,128,13.768884392843772,33.08651841718178,46.85540281002555,481.5998932,579.7357213182117,-5.58778626,5.557251908396946,0.32061068702290074,-0.074962519,0.4017991004497751,0.085457271
1.7089467781138916E12,2.4239130434782608,-6.413043478,3.4130434782608696,3967.7655677655675,128,128,13.687098465812024,33.00141489522635,46.688513361038375,481.6006865025385,579.7351443451815,-5.114503817,5.480916030534351,0.24427480916030533,-0.067466267,0.39430284857571213,0.10644677661169415
1.7089467781334229E12,2.391304347826087,-6.434782609,3.391304347826087,3969.230769230769,128,128,13.671015342595023,32.95136248485595,46.622377827450975,481.60472531374995,579.3984084604274,-5.969465649,5.648854961832061,0.4580152671755725,-0.076461769,0.39280359820089955,0.097451274
1.708946778152954E12,2.391304347826087,-6.434782609,3.3369565217391304,3964.8351648351645,128,128,13.649378853962286,32.96138739125578,46.61076624521807,481.60544653003774,579.7278600606752,-5.419847328,5.603053435114504,0.564885496,-0.097451274,0.3988005997001499,0.092953523
1.7089467781724854E12,2.4130434782608696,-6.434782609,3.3804347826086953,3969.230769230769,128,128,13.648585516045753,32.95770918818822,46.606294704233974,481.6078986654161,579.730168,-4.687022901,5.923664122137405,0.8702290076335878,-0.065967016,0.39730134932533734,0.10494752623688156
1.7089467781920166E12,2.391304347826087,-6.445652174,3.260869565217391,3969.230769230769,128,128,13.647143083470237,32.975234743980735,46.622377827450975,481.6113605035973,579.7321873584017,-5.129770992,6.534351145038167,0.6717557251908397,-0.085457271,0.3913043478260869,0.098950525
1.7089467782115479E12,2.402173913043478,-6.380434783,3.391304347826087,3944.322344322344,128,128,13.65291281,32.95720433678679,46.61011715055909,481.61186535499877,579.7375243589312,-4.595419847,5.786259541984733,0.6259541984732824,-0.070464768,0.40629685157421286,0.10644677661169415
1.708946778231079E12,2.380434782608696,-6.369565217,3.358695652173913,3970.6959706959706,128,128,13.643176393887568,32.970763202996636,46.61393959688421,481.6138847606045,579.7306728041974,-5.374045802,6.8396946564885495,0.9465648854961831,-0.073463268,0.38530734632683655,0.10194902548725637
1.7089467782506104E12,2.402173913043478,-6.402173913,3.3152173913043477,3969.230769230769,128,128,13.663586814831117,32.96124314799823,46.62482996282935,481.6140290038621,579.7271388443875,-4.916030534,7.465648854961832,1.4351145038167938,-0.074962519,0.3913043478260869,0.098950525
1.7089467782701416E12,2.391304347826087,-6.402173913,3.391304347826087,3967.7655677655675,128,128,13.631997541427321,32.98735117761507,46.61934871904239,481.61669750412676,579.7337019126061,-5.34351145,7.267175572519084,1.099236641221374,-0.077961019,0.4017991004497751,0.098950525
1.7089467782896729E12,2.4130434782608696,-6.445652174,3.3260869565217392,3970.6959706959706,128,128,13.66300984180091,32.97458564932175,46.63759549112267,481.61828417995986,579.7321152,-5.740458015,6.625954198473282,1.282442748091603,-0.068965517,0.39730134932533734,0.10794602698650674
1.708946778309204E12,2.391304347826087,-6.467391304,3.293478260869565,3969.230769230769,128,128,13.651830989340663,32.98562025852445,46.637451247865116,481.62051995045186,579.7316103853715,-5.374045802,6.931297709923664,1.5877862595419847,-0.073463268,0.39280359820089955,0.11244377811094453
1.7089467783287354E12,2.391304347826087,-6.456521739,3.282608695652174,3969.230769230769,128,128,13.638272123130815,32.98129296,46.61956508392872,481.62564058609496,579.7402649808246,-5.404580153,7.0534351145038165,1.5419847328244274,-0.061469265,0.4047976011994003,0.11544227886056971
1.7089467783482666E12,2.402173913043478,-6.434782609,3.282608695652174,3969.230769230769,128,128,13.653273421916179,32.96210860754354,46.615382029459724,481.6260011942388,579.7377407238175,-5.312977099,6.854961832061068,1.4198473282442747,-0.074962519,0.40629685157421286,0.095952024
1.7089467783677979E12,2.369565217391304,-6.434782609,3.293478260869565,3942.8571428571427,128,128,13.64966734047739,32.969392892049896,46.61906023252729,481.62239511280006,579.7368752642722,-5.282442748,6.946564885496183,1.5114503816793892,-0.083958021,0.39730134932533734,0.10194902548725637
1.708946778387329E12,2.380434782608696,-6.434782609,3.25,3969.230769230769,128,128,13.64382548854655,32.94155394334244,46.585379431888995,481.6278764,579.4018702986086,-5.664122137,6.946564885496183,1.4961832061068703,-0.067466267,0.38830584707646176,0.12143928035982009
1.7089467784068604E12,2.358695652173913,-6.391304348,3.2717391304347827,3967.7655677655675,128,128,13.64555640763717,32.95013641716676,46.59569282480393,481.6311218298819,579.7431498459756,-4.946564885,6.961832061068702,1.648854961832061,-0.085457271,0.3988005997001499,0.10344827586206896
1.7089467784263916E12,2.3369565217391304,-6.391304348,3.282608695652174,3967.7655677655675,128,128,13.63372846051794,32.95287703906024,46.586605499578184,481.6335018436315,579.7363704128708,-4.977099237,6.687022900763359,1.3740458015267174,-0.083958021,0.38980509745127434,0.10194902548725637
1.7089467784459229E12,2.3152173913043477,-6.380434783,3.260869565217391,3969.230769230769,128,128,13.625795081352603,32.95352613371922,46.57932121507183,481.6340788166617,579.7424286296879,-5.267175573,6.946564885496183,1.4351145038167938,-0.070464768,0.38080959520239877,0.092953523
1.708946778465454E12,2.369565217391304,-6.402173913,3.2717391304347827,3969.230769230769,128,128,13.646638232068806,32.93765937538855,46.58429760745736,481.6348000329495,579.7443759136648,-4.488549618,6.534351145038167,1.2366412213740459,-0.074962519,0.38830584707646176,0.098950525
1.7089467784849854E12,2.3478260869565215,-6.402173913,3.25,3967.7655677655675,128,128,13.643969731804102,32.93809211,46.58206183696531,481.63869460090336,579.7500014007094,-4.549618321,6.244274809160305,0.9465648854961831,-0.074962519,0.39430284857571213,0.10344827586206896
1.7089467785045166E12,2.3478260869565215,-6.391304348,3.217391304347826,3969.230769230769,128,128,13.64332063714512,32.93830847004753,46.581629107192654,481.63941581719115,579.7396880077944,-4.015267176,6,0.2900763358778626,-0.076461769,0.4002998500749625,0.10494752623688156
1.7089467785240479E12,2.3260869565217392,-6.413043478,3.25,3945.7875457875457,128,128,13.636901812184075,32.94003938913815,46.57694120132223,481.6425170472285,579.7487032113914,-4.519083969,5.984732824427481,0.48854961832061067,-0.083958021,0.4002998500749625,0.097451274
1.708946778543579E12,2.369565217391304,-6.423913043,3.260869565217391,3969.230769230769,128,128,13.63286300097263,32.940472118910805,46.57333511988344,481.64395947980404,579.7391832,-4.229007634,5.847328244274809,0.47328244274809156,-0.076461769,0.38980509745127434,0.10794602698650674
1.7089467785631104E12,2.402173913043478,-6.402173913,3.2391304347826084,3969.230769230769,128,128,13.632502392828751,32.93852483493386,46.57102722776261,481.64504130423563,579.7449529,-3.984732824,5.526717557251908,0.33587786259541985,-0.073463268,0.39280359820089955,0.097451274
1.7089467785826416E12,2.4130434782608696,-6.423913043,3.2391304347826084,3967.7655677655675,128,128,13.637911514986936,32.943356984061836,46.581268499048775,481.6452577,579.7412746836275,-3.679389313,5.908396946564885,0.091603053,-0.08095952,0.39730134932533734,0.10194902548725637
1.7089467786021729E12,2.380434782608696,-6.445652174,3.25,3966.300366300366,128,128,13.629473284420168,32.94249152451653,46.57196481,481.64511342586445,579.7409861971124,-4.167938931,5.847328244274809,0,-0.061469265,0.4002998500749625,0.11244377811094453
1.708946778621704E12,2.4456521739130435,-6.445652174,3.2391304347826084,3967.7655677655675,128,128,13.642527299228586,32.95727645841556,46.59980375764415,481.6458346421522,579.7330528,-4.396946565,6.137404580152672,0.2748091603053435,-0.070464768,0.38830584707646176,0.095952024
1.7089467786412354E12,2.4239130434782608,-6.445652174,3.2282608695652173,3967.7655677655675,128,128,13.653634030060058,32.95612251235515,46.60975654241521,481.64597888540976,579.4880556449957,-3.58778626,5.908396946564885,0.5190839694656488,-0.082458771,0.3988005997001499,0.11094452773613193
1.7089467786607666E12,2.4456521739130435,-6.434782609,3.2065217391304346,3967.7655677655675,128,128,13.689839087705504,32.99225544837182,46.68209453607733,481.64922435870466,579.7306006825687,-4,5.9541984732824424,0.3511450381679389,-0.074962519,0.3988005997001499,0.10344827586206896
1.7089467786802979E12,2.4456521739130435,-6.423913043,3.2065217391304346,3944.322344322344,128,128,13.667192896269906,32.96903228390602,46.63622518017593,481.6498734533636,579.7352164668104,-3.603053435,6.381679389312977,0.42748091603053434,-0.068965517,0.4002998500749625,0.10794602698650674
1.708946778699829E12,2.4456521739130435,-6.413043478,3.1739130434782608,3970.6959706959706,128,128,13.620241715936867,32.89106880319939,46.51131051913625,481.6494407,579.7513717116561,-3.58778626,5.984732824427481,0.16793893129770993,-0.076461769,0.38530734632683655,0.097451274
1.7089467787193604E12,2.4891304347826084,-6.413043478,3.184782608695652,3970.6959706959706,128,128,13.624785378549742,32.88825605967713,46.51304143822687,481.6487195073032,579.7474771437022,-3.190839695,6.2748091603053435,0.6870229007633587,-0.083958021,0.4002998500749625,0.083958021
1.7089467787388916E12,2.4130434782608696,-6.358695652,3.1630434782608696,3967.7655677655675,128,128,13.64418609669043,32.87866388304995,46.522849979740386,481.6481425,579.7523092928302,-3.053435115,6.549618320610687,0.8244274809160305,-0.070464768,0.383808096,0.11094452773613193
1.7089467787584229E12,2.391304347826087,-6.380434783,3.184782608695652,3970.6959706959706,128,128,13.640507893622864,32.890419708540406,46.530927602163274,481.6487916,579.7526699009741,-2.442748092,7.297709923664121,1.129770992366412,-0.076461769,0.4002998500749625,0.097451274
1.708946778777954E12,2.380434782608696,-6.456521739,3.1956521739130435,3969.230769230769,128,128,13.632430271199976,32.89424215486552,46.52667243,481.64648373681115,579.7385341,-2.442748092,7.465648854961832,0.7175572519083969,-0.083958021,0.39280359820089955,0.10194902548725637
1.7089467787974854E12,2.3369565217391304,-6.413043478,3.1956521739130435,3967.7655677655675,128,128,13.611731363741322,32.90513252081067,46.51686388455199,481.64468069609177,579.7590166043063,-3.038167939,7.7251908396946565,0.6564885496183206,-0.070464768,0.38830584707646176,0.098950525
1.7089467788170166E12,2.3043478260869565,-6.413043478,3.2282608695652173,3969.230769230769,128,128,13.862930996767401,33.32213977839229,47.185070775159694,481.6435988716601,579.6460741336434,-3.34351145,7.129770992366412,0.3969465648854962,-0.067466267,0.3913043478260869,0.095952024
1.7089467788365479E12,2.3043478260869565,-6.380434783,3.260869565217391,3944.322344322344,128,128,13.897477256951007,33.90827225545314,47.80574951240415,481.64648373681115,579.2905866254076,-3.832061069,6.015267175572519,0.38167938931297707,-0.062968516,0.3988005997001499,0.092953523
1.708946778856079E12,2.3152173913043477,-6.380434783,3.1956521739130435,3969.230769230769,128,128,13.670149883049714,32.7119908,46.38214068199881,481.64778192612914,579.8240703134621,-4.458015267,5.480916030534351,0.21374045801526717,-0.061469265,0.38530734632683655,0.097451274
1.7089467788756104E12,2.2717391304347827,-6.380434783,3.282608695652174,3969.230769230769,128,128,13.671952923769108,32.92359565777727,46.59554858154638,481.6457625205234,579.7629833,-5.221374046,6.992366412,0.15267175572519084,-0.073463268,0.39280359820089955,0.10794602698650674
1.7089467788951416E12,2.3043478260869565,-6.380434783,3.141304347826087,3966.300366300366,128,128,13.680968127366082,32.89633368210002,46.57730180946611,481.6444643312054,579.4289880310283,-4.183206107,6.748091603053435,0.2748091603053435,-0.082458771,0.38830584707646176,0.088455772
1.7089467789146729E12,2.369565217391304,-6.391304348,3.2065217391304346,3969.230769230769,128,128,13.679742059676894,32.92633627967075,46.60607833934765,481.64511342586445,579.7653633076386,-6.045801527,6.6106870229007635,0.366412214,-0.077961019,0.39430284857571213,0.098950525
1.708946778934204E12,2.380434782608696,-6.391304348,3.184782608695652,3969.230769230769,128,128,13.683636627630786,32.92575930664054,46.60939593427133,481.64475281772053,579.7719984974859,-4.748091603,6.8396946564885495,0.38167938931297707,-0.082458771,0.38830584707646176,0.10344827586206896
1.7089467789537354E12,2.4239130434782608,-6.391304348,3.2391304347826084,3966.300366300366,128,128,13.701811278082285,32.93282722626057,46.63463850434286,481.6451855474932,579.7688251458198,-5.908396947,6.183206106870228,0.32061068702290074,-0.077961019,0.37631184407796103,0.10644677661169415
1.7089467789732666E12,2.380434782608696,-6.489130435,3.2391304347826084,3969.230769230769,128,128,13.724818077661762,32.93902968633529,46.663847763997055,481.6452577,579.7882258639605,-5.06870229,5.343511450381679,0.2595419847328244,-0.068965517,0.39730134932533734,0.10494752623688156
1.7089467789927979E12,2.4130434782608696,-6.52173913,3.1956521739130435,3944.322344322344,128,128,13.754243702202286,32.947467916902056,46.701711619104344,481.64338250677383,579.8068332441846,-4.93129771,5.083969465648854,0.21374045801526717,-0.068965517,0.39730134932533734,0.089955022
1.708946779012329E12,2.4347826086956523,-6.52173913,3.2282608695652173,3969.230769230769,128,128,13.80076215276267,32.955184931181066,46.75594708394374,481.6403533983652,579.8388552473612,-5.129770992,6.122137404580153,0.2595419847328244,-0.070464768,0.38830584707646176,0.098950525
1.7089467790318604E12,2.4565217391304346,-6.467391304,3.2065217391304346,3967.7655677655675,128,128,13.848939400784898,32.95612251235515,46.80506191314005,481.63761277647177,579.8384946392173,-4.13740458,6.473282442748092,0.21374045801526717,-0.068965517,0.38530734632683655,0.10794602698650674
1.7089467790513916E12,2.4239130434782608,-6.402173913,3.2065217391304346,3960.43956,128,128,13.897549378579782,32.998530030075315,46.89607941,481.63826187113074,579.8548662489494,-3.908396947,5.7251908396946565,0.15267175572519084,-0.074962519,0.38830584707646176,0.10644677661169415
1.7089467790709229E12,2.4456521739130435,-6.413043478,3.1956521739130435,3969.230769230769,128,128,13.91471432622842,33.03213870908483,46.946853035313254,481.63696368181274,579.8198151373643,-3.969465649,6.030534351145038,-0.015267176,-0.074962519,0.3913043478260869,0.095952024
1.708946779090454E12,2.4347826086956523,-6.413043478,3.152173913043478,3969.230769230769,128,128,13.837688426695875,33.086229930666676,46.92391835736255,481.6377570197293,579.7576462933596,-3.114503817,6.412213740458015,-0.213740458,-0.074962519,0.4017991004497751,0.11394302848575712
1.7089467791099854E12,2.4456521739130435,-6.402173913,3.1739130434782608,3967.7655677655675,128,128,13.710249508649053,33.03148961442585,46.74173912307491,481.6349443,579.707666,-3.145038168,6.091603053435114,-0.305343511,-0.088455772,0.39730134932533734,0.094452774
1.7089467791295166E12,2.467391304347826,-6.413043478,3.184782608695652,3969.230769230769,128,128,13.656086165438435,32.97912931193463,46.635215477373066,481.63429518154805,579.7135799781776,-3.022900763,6.671755725190839,0,-0.08095952,0.39730134932533734,0.10494752623688156
1.7089467791490479E12,2.467391304347826,-6.434782609,3.1956521739130435,3945.7875457875457,128,128,13.647647934871667,32.934486023722414,46.582133958594085,481.63458366806316,579.3693434440307,-2.427480916,6.763358778625954,0.030534351145038167,-0.073463268,0.39280359820089955,0.11244377811094453
1.708946779168579E12,2.4565217391304346,-6.456521739,3.217391304347826,3970.6959706959706,128,128,13.634882406578352,32.955184931181066,46.59006733775942,481.62866969450357,579.7018241526871,-3.312977099,6.778625954198473,0.22900763358778625,-0.068965517,0.3823088455772114,0.10194902548725637
1.7089467791881104E12,2.4456521739130435,-6.456521739,3.119565217391304,3969.230769230769,128,128,13.63048298722303,32.94999217390921,46.58047516113224,481.63104970825316,579.7205037,-2.702290076,6.778625954198473,0.366412214,-0.089955022,0.3913043478260869,0.095952024
1.7089467792076416E12,2.4347826086956523,-6.445652174,3.25,3966.300366300366,128,128,13.625795081352603,32.954175228378205,46.57997030973081,481.6281648431021,579.7191333435933,-2.992366412,7.587786259541985,0.3053435114503817,-0.085457271,0.4017991004497751,0.088455772
1.7089467792271729E12,2.4456521739130435,-6.445652174,3.141304347826087,3969.230769230769,128,128,13.631709054912218,32.95172309299983,46.58343214791205,481.6293909107913,579.7121375456021,-2.13740458,7.206106870229007,0.3969465648854962,-0.059970015,0.3913043478260869,0.088455772
1.708946779246704E12,2.4347826086956523,-6.380434783,3.2065217391304346,3967.7655677655675,128,128,13.626732662526688,32.96780621621683,46.59453887874352,481.6285255,579.7160321135559,-1.770992366,7.877862595419847,0.42748091603053434,-0.088455772,0.4002998500749625,0.097451274
1.7089467792662354E12,2.4347826086956523,-6.391304348,3.152173913043478,3967.7655677655675,128,128,13.618655040103798,32.97631656841238,46.594971608516175,481.6238375453756,579.7212969924566,-1.58778626,7.221374045801526,0.916030534,-0.070464768,0.38080959520239877,0.092953523
1.7089467792857666E12,2.4456521739130435,-6.445652174,3.1739130434782608,3967.7655677655675,128,128,13.630050257450375,32.97408079792032,46.60413106,481.6234769372317,579.7157436270409,-1.557251908,7.343511450381679,0.549618321,-0.070464768,0.40629685157421286,0.092953523
1.7089467793052979E12,2.4239130434782608,-6.456521739,3.2391304347826084,3942.8571428571427,128,128,13.633800582146716,32.97177291,46.60557348794622,481.6240539102619,579.7174745461315,-1.099236641,7.938931297709924,1.129770992366412,-0.073463268,0.38530734632683655,0.097451274
1.708946779324829E12,2.4565217391304346,-6.47826087,3.217391304347826,3969.230769230769,128,128,13.623559310860553,32.98078810939647,46.60434742025703,481.62239511280006,579.7083151,-1.435114504,7.908396946564885,0.8244274809160305,-0.077961019,0.39430284857571213,0.10344827586206896
1.7089467793443604E12,2.4347826086956523,-6.434782609,3.25,3967.7655677655675,128,128,13.624208405519536,32.97458564932175,46.59879405484129,481.6223229911713,579.6947562330671,-1.114503817,8.076335877862595,0.7175572519083969,-0.076461769,0.4002998500749625,0.10194902548725637
1.7089467793638916E12,2.467391304347826,-6.391304348,3.25,3966.300366300366,128,128,13.617861702187264,32.968166824360715,46.58602852654798,481.61943812602027,579.6987229226497,-1.496183206,7.893129770992366,0.6717557251908397,-0.08095952,0.39730134932533734,0.097451274
1.7089467793834229E12,2.4565217391304346,-6.380434783,3.2065217391304346,3941.391941391941,128,128,13.623487189231778,32.96030556682415,46.58379275605593,481.6186447881037,579.6897798406816,-1.175572519,7.938931297709924,0.8091603053435115,-0.077961019,0.38080959520239877,0.11094452773613193
1.708946779402954E12,2.4347826086956523,-6.402173913,3.2282608695652173,3967.7655677655675,128,128,13.622188999913813,32.94076060542591,46.562949605339725,481.6201593,579.4218479897795,-0.778625954,8.076335877862595,1.0687022900763359,-0.073463268,0.4002998500749625,0.083958021
1.7089467794224854E12,2.402173913043478,-6.423913043,3.25,3967.7655677655675,128,128,13.618366553588695,32.96254134,46.580907890904896,481.6151108282937,579.6812695,-0.671755725,7.435114503816793,1.2519083969465647,-0.073463268,0.39730134932533734,0.089955022
1.7089467794420166E12,2.402173913043478,-6.456521739,3.2717391304347827,3967.7655677655675,128,128,13.603797984575985,32.966291662012544,46.57008964658853,481.61381263897573,579.6831446508342,-0.045801527,7.312977099236641,1.282442748091603,-0.074962519,0.3988005997001499,0.098950525
1.7089467794615479E12,2.4456521739130435,-6.445652174,3.293478260869565,3944.322344322344,128,128,13.613245917945614,32.964560742921925,46.57780666086754,481.6136683957182,579.6786009882213,-0.106870229,7.404580152671755,1.2671755725190839,-0.08095952,0.4047976011994003,0.10494752623688156
1.708946779481079E12,2.4565217391304346,-6.423913043,3.260869565217391,3967.7655677655675,128,128,13.605745268552932,32.963695283376616,46.569440551929546,481.6097017061355,579.6791779612515,0.42748091603053434,7.648854961832061,1.0534351145038168,-0.062968516,0.3988005997001499,0.092953523
1.7089467795006104E12,2.4891304347826084,-6.402173913,3.25,3957.5091575091574,128,128,13.612019850256425,32.95713221515802,46.56915206541444,481.61374051734697,579.6848034482961,0.5190839694656488,7.938931297709924,1.5267175572519083,-0.08095952,0.38980509745127434,0.094452774
1.7089467795201416E12,2.4130434782608696,-6.413043478,3.293478260869565,3964.8351648351645,128,128,13.61605866146787,32.95799767470333,46.574056336171196,481.61128838196856,579.6796106910242,-0.564885496,7.404580152671755,1.5267175572519083,-0.098950525,0.39280359820089955,0.10794602698650674
1.7089467795396729E12,2.402173913043478,-6.391304348,3.3152173913043477,3969.230769230769,128,128,13.612236215142753,32.95655524212781,46.568791457270564,481.610495,579.6726870146617,-1.145038168,7.450381679389313,1.4198473282442747,-0.068965517,0.38530734632683655,0.10194902548725637
1.708946779559204E12,2.402173913043478,-6.391304348,3.3152173913043477,3969.230769230769,128,128,13.602211308742918,32.96412801314927,46.56633932189219,481.6075380572722,579.6778076503048,-0.366412214,6.885496183206107,1.1908396946564885,-0.089955022,0.3913043478260869,0.095952024
1.7089467795787354E12,2.4239130434782608,-6.413043478,3.3043478260869565,3967.7655677655675,128,128,13.602788281773124,33.01482951817865,46.61761779995177,481.60530228678016,579.6607869459137,-0.213740458,7.6183206106870225,1.1908396946564885,-0.065967016,0.3823088455772114,0.11244377811094453
1.7089467795982666E12,2.4456521739130435,-6.445652174,3.3369565217391304,3969.230769230769,128,128,13.636180595896317,33.012737990944146,46.648918586840466,481.60450894886367,579.6545123642102,-0.106870229,8.366412213740457,1.4961832061068703,-0.083958021,0.38980509745127434,0.10794602698650674
1.7089467796177979E12,2.4130434782608696,-6.445652174,3.358695652173913,3942.8571428571427,128,128,13.664235909490099,33.020094397079276,46.68433030656938,481.6050859218939,579.6467232283024,-0.366412214,8.244274809160306,1.5725190839694656,-0.076461769,0.3823088455772114,0.1199400299850075
1.708946779637329E12,2.380434782608696,-6.423913043,3.3804347826086953,3969.230769230769,128,128,13.611226512339892,32.98475479897915,46.595981311319036,481.60306651628815,579.6729755011768,-0.625954198,7.893129770992366,1.297709923664122,-0.070464768,0.3988005997001499,0.095952024
1.7089467796568604E12,2.380434782608696,-6.413043478,3.358695652173913,3967.7655677655675,128,128,13.592258523971859,32.93636118607059,46.52861971004245,481.5986670969328,579.6703070009121,-0.122137405,7.068702290076335,1.114503816793893,-0.067466267,0.39430284857571213,0.098950525
1.7089467796763916E12,2.391304347826087,-6.391304348,3.3804347826086953,3963.369963369963,128,128,13.585983942268365,32.93455815,46.52054208761956,481.59527738038037,579.6764373,-0.198473282,6.7328244274809155,0.9923664122137404,-0.070464768,0.3988005997001499,0.077961019
1.7089467796959229E12,2.4130434782608696,-6.423913043,3.369565217391304,3969.230769230769,128,128,13.584613631321625,32.940255754024484,46.52486938534611,481.59296948825954,579.6760046095854,-0.183206107,6.8396946564885495,1.1755725190839694,-0.061469265,0.39730134932533734,0.089955022
1.708946779715454E12,2.4239130434782608,-6.402173913,3.402173913043478,3969.230769230769,128,128,13.57595903586853,32.94703518712941,46.52299422299794,481.59354646128975,579.6721821632602,-1.007633588,7.3893129770992365,1.0687022900763359,-0.056971514,0.38980509745127434,0.083958021
1.7089467797349854E12,2.4347826086956523,-6.423913043,3.402173913043478,3967.7655677655675,128,128,13.570189305566467,32.95792555307455,46.52811485864102,481.5917434205703,579.6723264065179,-1.007633588,7.557251908396946,1.1603053435114503,-0.065967016,0.38980509745127434,0.11544227886056971
1.7089467797545166E12,2.4130434782608696,-6.423913043,3.402173913043478,3967.7655677655675,128,128,13.605528903666604,33.111184014223106,46.71671291788971,481.59253675848686,579.6589117835655,-1.160305344,7.587786259541985,1.1755725190839694,-0.08095952,0.4047976011994003,0.10194902548725637
1.7089467797740479E12,2.402173913043478,-6.413043478,3.4130434782608696,3944.322344322344,128,128,14.122424617102698,34.36667732795206,48.48910194505476,481.5864785416697,578.9676259717496,-0.854961832,7.3893129770992365,1.2366412213740459,-0.074962519,0.37631184407796103,0.10344827586206896
1.708946779793579E12,2.4130434782608696,-6.423913043,3.391304347826087,3967.7655677655675,128,128,13.797444557838984,33.21662584,47.01407039333229,481.5903009879948,579.5112788094615,-1.022900763,7.129770992366412,1.2366412213740459,-0.059970015,0.3988005997001499,0.095952024
1.7089467798131104E12,2.4239130434782608,-6.369565217,3.4456521739130435,3967.7655677655675,128,128,13.642383055971035,33.00905978787658,46.65144284384762,481.5870555146999,579.6956938142412,-1.465648855,7.114503816793893,1.129770992366412,-0.055472264,0.38830584707646176,0.088455772
1.7089467798326416E12,2.4347826086956523,-6.391304348,3.543478260869565,3961.9047619047615,128,128,13.622549608057692,32.99283242140203,46.615382029459724,481.58539671723804,579.7017520310584,-2.870229008,8.061068702290076,1.297709923664122,-0.073463268,0.4002998500749625,0.10194902548725637
1.7089467798521729E12,2.4130434782608696,-6.423913043,3.391304347826087,3941.391941391941,128,128,13.630338743965478,32.97328746000379,46.60362620396927,481.58373791977624,579.6994441389376,-1.923664122,8.687022900763358,1.3282442748091603,-0.097451274,0.40629685157421286,0.088455772
1.708946779871704E12,2.391304347826087,-6.402173913,3.402173913043478,3969.230769230769,128,128,13.644474583205533,32.965498324096004,46.60997290730154,481.58157427091294,579.7113442076856,-0.946564885,8.045801526717558,1.4045801526717556,-0.082458771,0.3913043478260869,0.098950525
1.7089467798912354E12,2.380434782608696,-6.369565217,3.369565217391304,3967.7655677655675,128,128,13.650893408166578,32.972133513943376,46.62302692210996,481.5819348790568,579.7383176968477,-0.076335878,8.030534351145038,1.3740458015267174,-0.073463268,0.41079460269865065,0.094452774
1.7089467799107666E12,2.358695652173913,-6.380434783,3.467391304347826,3969.230769230769,128,128,13.672169288655436,32.96232497242987,46.63449426108531,481.5779681894742,579.4265359,-1.099236641,7.297709923664121,1.450381679389313,-0.077961019,0.4017991004497751,0.077961019
1.7089467799302979E12,2.369565217391304,-6.402173913,3.467391304347826,3942.8571428571427,128,128,13.679525694790566,32.989298461592014,46.668824156382584,481.5772469731864,579.7582232663898,-1.908396947,6.229007633587786,0.9770992366412213,-0.076461769,0.4077961019490255,0.097451274
1.708946779949829E12,2.380434782608696,-6.445652174,3.4456521739130435,3960.43956,128,128,13.721211996222973,32.99946761,46.72067960747238,481.5745784729217,579.7870719179001,-1.786259542,6.7328244274809155,1.0687022900763359,-0.067466267,0.39430284857571213,0.092953523
1.7089467799693604E12,2.402173913043478,-6.445652174,3.467391304347826,3969.230769230769,128,128,13.771048041707045,33.00631917,46.77736720769015,481.57025117519515,579.8018568517991,-1.190839695,6.8396946564885495,0.8091603053435115,-0.08095952,0.41079460269865065,0.097451274
1.7089467799888916E12,2.4130434782608696,-6.402173913,3.4565217391304346,3963.369963369963,128,128,13.809633113102093,33.028532627646044,46.83816574074814,481.5707560265966,579.8221230294852,-0.458015267,7.1603053435114505,0.7786259541984732,-0.067466267,0.3913043478260869,0.10644677661169415
1.7089467800084229E12,2.380434782608696,-6.369565217,3.4456521739130435,3941.391941391941,128,128,13.851607901049602,33.088826309302604,46.94043421035221,481.5691693507635,579.8113769067976,-0.442748092,7.190839694656488,1.114503816793893,-0.077961019,0.38830584707646176,0.11394302848575712
1.708946780027954E12,2.358695652173913,-6.402173913,3.4456521739130435,3969.230769230769,128,128,13.829755047530538,33.15027393701958,46.98002898455012,481.5703232968239,579.7608196450258,-0.564885496,7.190839694656488,1.5267175572519083,-0.065967016,0.4077961019490255,0.097451274
1.7089467800474854E12,2.369565217391304,-6.402173913,3.5217391304347827,3969.230769230769,128,128,13.703397953915353,33.12077619085028,46.824174144765635,481.5709723914829,579.6864622457579,-0.961832061,7.328244275,1.2366412213740459,-0.082458771,0.4017991004497751,0.098950525
1.7089467800670166E12,2.358695652173913,-6.391304348,3.5217391304347827,3969.230769230769,128,128,13.643537002031447,33.05579460332329,46.69933160535474,481.5691693507635,579.6731918660631,-0.442748092,7.236641221374046,0.8091603053435115,-0.08095952,0.4077961019490255,0.10494752623688156
1.7089467800865479E12,2.380434782608696,-6.347826087,3.4891304347826084,3942.8571428571427,128,128,13.601850700599039,33.00833857158883,46.61018927218787,481.5665008504988,579.6845149617809,-0.702290076,7.190839694656488,1.129770992366412,-0.067466267,0.39430284857571213,0.098950525
1.708946780106079E12,2.369565217391304,-6.380434783,3.5217391304347827,3969.230769230769,128,128,13.607187701128447,33.00112640871125,46.60831411,481.56852025610453,579.6780240151911,-0.625954198,6.916030534351145,0.9770992366412213,-0.067466267,0.39430284857571213,0.098950525
1.7089467801256104E12,2.369565217391304,-6.423913043,3.5543478260869565,3969.230769230769,128,128,13.588363956017966,32.99910700310553,46.58747095912349,481.5593608,579.6762209744717,-1.282442748,6.65648855,1.129770992366412,-0.068965517,0.4077961019490255,0.097451274
1.7089467801646729E12,2.369565217391304,-6.423913043,3.5543478260869565,3969.230769230769,128,128,13.597523402872492,32.992327570000604,46.589850972873094,481.55799049830324,579.6789615963652,-0.351145038,6.305343511450381,1.0076335877862594,-0.070464768,0.4197901049475262,0.095952024
1.708946780184204E12,2.380434782608696,-6.369565217,3.543478260869565,3969.230769230769,128,128,13.608485890446412,32.98215842034322,46.59064431078963,481.5609474850831,579.3459039146786,-0.473282443,6.412213740458015,0.6412213740458015,-0.083958021,0.4002998500749625,0.07946027
1.7089467802037354E12,2.380434782608696,-6.336956522,3.5217391304347827,3967.7655677655675,128,128,13.594422172835133,33.010646463709655,46.605068636544786,481.55957717413634,579.6767979475019,-0.229007634,6.381679389312977,0.549618321,-0.068965517,0.39280359820089955,0.097451274
1.7089467802232666E12,2.380434782608696,-6.336956522,3.510869565217391,3969.230769230769,128,128,13.594710659350236,33.021608951283575,46.61631961063381,481.5608753634543,579.6786009882213,-0.061068702,5.923664122137405,0.6717557251908397,-0.059970015,0.4017991004497751,0.10344827586206896
1.7089467802427979E12,2.402173913043478,-6.391304348,3.5543478260869565,3942.8571428571427,128,128,13.596585821698406,33.02499866783604,46.62158448953444,481.55532199803855,579.6656190950417,-0.809160305,6.076335877862595,0.42748091603053434,-0.089955022,0.3913043478260869,0.10644677661169415
1.708946780262329E12,2.402173913043478,-6.380434783,3.5978260869565215,3969.230769230769,128,128,13.587931226245312,33.03163385768341,46.61956508392872,481.55589897106876,579.6811252452285,-0.824427481,6.229007633587786,0.366412214,-0.082458771,0.40629685157421286,0.098950525
1.7089467802818604E12,2.4239130434782608,-6.413043478,3.5760869565217392,3969.230769230769,128,128,13.595576118895545,33.020238640336835,46.61581475923238,481.55561048455365,579.6700906360257,-0.534351145,6.641221374045801,0.2900763358778626,-0.070464768,0.39430284857571213,0.092953523
1.7089467803013916E12,2.4130434782608696,-6.402173913,3.5543478260869565,3961.9047619047615,128,128,13.588003347874087,33.020743491738266,46.60874683961235,481.5530862275465,579.6639602975798,-0.717557252,6.916030534351145,0.38167938931297707,-0.065967016,0.4047976011994003,0.10794602698650674
1.7089467803209229E12,2.402173913043478,-6.380434783,3.6304347826086953,3969.230769230769,128,128,13.587570618101433,33.01605558586784,46.60362620396927,481.55351895731917,579.6674221357611,-0.503816794,7.007633587786259,0.24427480916030533,-0.082458771,0.4017991004497751,0.085457271
1.708946780340454E12,2.358695652173913,-6.369565217,3.619565217391304,3969.230769230769,128,128,13.582377860829576,33.01345920723191,46.595837068061485,481.55092257868324,579.6669894059884,-1.129770992,7.206106870229007,0.6870229007633587,-0.091454273,0.39730134932533734,0.10194902548725637
1.7089467803599854E12,2.380434782608696,-6.369565217,3.608695652173913,3967.7655677655675,128,128,13.582377860829576,33.00667977412699,46.58905763495656,481.54911953796386,579.6750670284113,-1.190839695,7.450381679389313,0.7480916030534351,-0.070464768,0.416791604,0.085457271
1.7089467803795166E12,2.369565217391304,-6.358695652,3.5760869565217392,3970.6959706959706,128,128,13.578627536133235,33.00639128761188,46.585018823745116,481.5471722539869,579.6791058396227,-1.083969466,7.1603053435114505,0.6259541984732824,-0.077961019,0.41379310344827586,0.10344827586206896
1.7089467803990479E12,2.369565217391304,-6.347826087,3.608695652173913,4002.9304029304026,128,128,13.573290535603826,33.012882234201705,46.58617276980553,481.5456576997826,579.6840101103795,-1.801526718,6.7328244274809155,0.7480916030534351,-0.067466267,0.4017991004497751,0.095952024
1.708946780418579E12,2.369565217391304,-6.380434783,3.6630434782608696,3970.6959706959706,128,128,13.57819480636058,33.00177550337023,46.57997030973081,481.5455855781538,579.6826397994328,-1.786259542,6.488549618320611,0.9007633587786259,-0.088455772,0.41079460269865065,0.10494752623688156
1.7089467804381104E12,2.369565217391304,-6.369565217,3.652173913043478,3969.230769230769,128,128,13.597234916357388,32.96737348644418,46.56460840280157,481.5439268,579.4284831796269,-2.13740458,6.259541984732824,0.6870229007633587,-0.085457271,0.38830584707646176,0.085457271
1.7089467804576416E12,2.391304347826087,-6.391304348,3.641304347826087,3960.43956,128,128,13.581873009428145,32.998818516590426,46.58069152601857,481.5432777,579.6845149617809,-2.427480916,6.5038167938931295,0.8549618320610687,-0.073463268,0.4002998500749625,0.089955022
1.7089467804771729E12,2.402173913043478,-6.369565217,3.641304347826087,3969.230769230769,128,128,13.586344550412244,32.99405848909122,46.580403039503466,481.5434940509193,579.6821349480314,-2.381679389,6.748091603053435,0.7938931297709924,-0.088455772,0.4047976011994003,0.097451274
1.708946780496704E12,2.402173913043478,-6.380434783,3.608695652173913,3969.230769230769,128,128,13.585262725980607,32.99564516492429,46.580907890904896,481.54284495626035,579.6861737592428,-2.534351145,7.083969465648854,0.9618320610687022,-0.070464768,0.40929535232383807,0.095952024
1.7089467805162354E12,2.4130434782608696,-6.391304348,3.641304347826087,3967.7655677655675,128,128,13.586777280184899,32.99477970537898,46.58155698556388,481.54169101019994,579.6972804900743,-2.458015267,6.8396946564885495,0.9465648854961831,-0.089955022,0.3988005997001499,0.10644677661169415
1.7089467805357666E12,2.4130434782608696,-6.358695652,3.6304347826086953,3967.7655677655675,128,128,13.585118482723056,32.99499607026531,46.58011455298836,481.54125828042726,579.7101181399963,-2.732824427,6.870229007633587,0.4427480916030534,-0.083958021,0.4002998500749625,0.10194902548725637
1.7089467805552979E12,2.4130434782608696,-6.336956522,3.6739130434782608,3942.8571428571427,128,128,13.592979740259617,32.98158144731301,46.57456118757263,481.5414746453136,579.7050696,-2.992366412,6.885496183206107,0.9770992366412213,-0.08095952,0.41079460269865065,0.086956522
1.708946780574829E12,2.4239130434782608,-6.380434783,3.641304347826087,3969.230769230769,128,128,13.597667646130043,32.988721488561815,46.586389134691856,481.54068130739705,579.7188448570782,-2.977099237,6.65648855,0.9007633587786259,-0.074962519,0.40629685157421286,0.077961019
1.7089467805943604E12,2.391304347826087,-6.369565217,3.641304347826087,3969.230769230769,128,128,13.604879809007622,33.03899026381854,46.64387007282616,481.5405370641395,579.7100460183676,-2.992366412,7.0534351145038165,0.5190839694656488,-0.068965517,0.4047976011994003,0.089955022
1.7089467806138916E12,2.391304347826087,-6.358695652,3.641304347826087,3960.43956,128,128,13.628463581617307,33.02088773499581,46.64935131661312,481.5408976722834,579.7181957624192,-2.961832061,7.007633587786259,0.7480916030534351,-0.074962519,0.40629685157421286,0.10644677661169415
1.7089467806334229E12,2.380434782608696,-6.369565217,3.641304347826087,3969.230769230769,128,128,13.635026649835904,33.02377260014684,46.65879924998275,481.5394552397079,579.7037714,-3.099236641,7.007633587786259,1.0229007633587786,-0.062968516,0.4017991004497751,0.10344827586206896
1.708946780652954E12,2.369565217391304,-6.369565217,3.641304347826087,3969.230769230769,128,128,13.607981039044981,32.98677420458487,46.59475524362985,481.5402485776244,579.7192054652221,-3.083969466,7.099236641221374,0.8091603053435115,-0.074962519,0.41379310344827586,0.085457271
1.7089467806724854E12,2.369565217391304,-6.380434783,3.6304347826086953,3967.7655677655675,128,128,13.597162794728613,32.925687185011775,46.522849979740386,481.53902250993525,579.7355770749542,-3.297709924,6.916030534351145,1.2213740458015268,-0.074962519,0.39430284857571213,0.095952024
1.7089467806920166E12,2.380434782608696,-6.369565217,3.6304347826086953,3969.230769230769,128,128,13.592114280714307,32.90888284550701,46.500997126221314,481.5376521989885,579.3872296079671,-3.786259542,7.190839694656488,1.297709923664122,-0.082458771,0.41379310344827586,0.085457271
1.7089467807115479E12,2.369565217391304,-6.380434783,3.641304347826087,3942.8571428571427,128,128,13.57819480636058,32.93419753720731,46.51239234356789,481.5406091857683,579.7331970612046,-3.816793893,7.099236641221374,1.5572519083969465,-0.067466267,0.40629685157421286,0.10644677661169415
1.708946780731079E12,2.369565217391304,-6.391304348,3.6630434782608696,3970.6959706959706,128,128,13.58281059060223,32.93398117232098,46.51679176292321,481.53902250993525,579.7304564393111,-4.045801527,7.221374045801526,1.1908396946564885,-0.062968516,0.39430284857571213,0.11094452773613193
1.7089467807506104E12,2.402173913043478,-6.380434783,3.6739130434782608,3969.230769230769,128,128,13.574228116777912,32.94645821,46.52068633087711,481.5427007130028,579.7299515879097,-4.015267176,6.870229007633587,0.9770992366412213,-0.068965517,0.4002998500749625,0.10494752623688156
1.7089467807701416E12,2.380434782608696,-6.391304348,3.684782608695652,3960.43956,128,128,13.793189381741213,33.33605925274602,47.12924863448723,481.5408976722834,579.5969593044472,-4.93129771,6.961832061068702,1.099236641221374,-0.097451274,0.39430284857571213,0.092953523
1.7089467807896729E12,2.391304347826087,-6.402173913,3.684782608695652,3969.230769230769,128,128,14.208249355345888,34.20570185,48.41395120787039,481.5424843481165,579.0341942351097,-5.740458015,6.549618320610687,1.1450381679389312,-0.08095952,0.39280359820089955,0.094452774
1.708946780809204E12,2.380434782608696,-6.391304348,3.5978260869565215,3969.230769230769,128,128,13.656086165438435,32.817793228363186,46.47387939380162,481.54666740258546,579.7483426032475,-5.267175573,6.595419847328244,0.9465648854961831,-0.08095952,0.4077961019490255,0.097451274
1.7089467808287354E12,2.402173913043478,-6.358695652,3.684782608695652,3969.230769230769,128,128,13.650027948621268,32.99485182700775,46.64487977562902,481.54666740258546,579.7365867777571,-5.145038168,7.190839694656488,0.564885496,-0.08095952,0.4002998500749625,0.086956522
1.7089467808482666E12,2.369565217391304,-6.434782609,3.717391304347826,3960.43956,128,128,13.631709054912218,32.955689782582496,46.58739883749472,481.5502734840243,579.7778403494168,-7.236641221,7.145038167938931,0.7938931297709924,-0.076461769,0.39730134932533734,0.094452774
1.7089467808677979E12,2.358695652173913,-6.402173913,3.5543478260869565,3942.8571428571427,128,128,13.628030851844652,32.96282982,46.590860675675955,481.55077833542566,579.7759651870687,-6.305343511,7.236641221374046,0.8702290076335878,-0.08095952,0.41079460269865065,0.10194902548725637
1.708946780887329E12,2.369565217391304,-6.358695652,3.532608695652174,3941.391941391941,128,128,13.65377827331761,32.9467467,46.60052497393191,481.55077833542566,579.7804367280528,-5.908396947,6.854961832061068,0.8244274809160305,-0.061469265,0.4002998500749625,0.097451274
1.7089467809068604E12,2.391304347826087,-6.347826087,3.510869565217391,3969.230769230769,128,128,13.670294126307265,32.95302128231779,46.62331540862506,481.5569807955004,579.7996932029358,-6.351145038,6.473282442748092,1.1450381679389312,-0.083958021,0.39280359820089955,0.10194902548725637
1.7089467809263916E12,2.391304347826087,-6.369565217,3.5978260869565215,3958.974358974359,128,128,13.677434167556068,32.95734858004434,46.63478274760041,481.55741352527303,579.8069053658135,-7.740458015,6.244274809160305,0.9770992366412213,-0.074962519,0.39430284857571213,0.098950525
1.7089467809459229E12,2.369565217391304,-6.434782609,3.5652173913043477,3967.7655677655675,128,128,13.72416898300278,32.94213091637265,46.66629989937543,481.55856747133345,579.5094758,-6.870229008,5.374045801526718,1.0534351145038168,-0.082458771,0.40929535232383807,0.098950525
1.708946780965454E12,2.380434782608696,-6.467391304,3.5652173913043477,3967.7655677655675,128,128,13.739530889932023,32.993048786288355,46.73257967622038,481.56188506625716,579.8610687,-6.381679389,4.885496183206107,1.1755725190839694,-0.076461769,0.4077961019490255,0.10194902548725637
1.7089467809849854E12,2.402173913043478,-6.456521739,3.543478260869565,3966.300366300366,128,128,13.824706533516233,32.98958694810712,46.81429348162335,481.5610917283406,579.9037647132593,-6.152671756,5.206106870229007,0.6412213740458015,-0.077961019,0.3913043478260869,0.092953523
1.7089467810045166E12,2.4130434782608696,-6.402173913,3.4891304347826084,3967.7655677655675,128,128,13.86603222680476,33.00718462552841,46.87321685233317,481.56397659349165,579.9251848370058,-5.816793893,5.297709923664122,0.42748091603053434,-0.076461769,0.4002998500749625,0.097451274
1.7089467810240479E12,2.4239130434782608,-6.358695652,3.4891304347826084,3944.322344322344,128,128,13.899713027443056,33.068271645101504,46.96798467254456,481.56606812072613,579.9077314,-5.664122137,5.221374045801526,0.6564885496183206,-0.074962519,0.3913043478260869,0.095952024
1.708946781043579E12,2.380434782608696,-6.336956522,3.510869565217391,3967.7655677655675,128,128,13.851968509193481,33.10397185134552,46.95594036,481.5706839049678,579.8435431532315,-5.236641221,5.358778625954198,0.9618320610687022,-0.070464768,0.3988005997001499,0.095952024
1.7089467810631104E12,2.391304347826087,-6.347826087,3.4891304347826084,3967.7655677655675,128,128,13.751503080308806,33.08240748434156,46.83391056465037,481.56996268868005,579.7896682965361,-5.221374046,5.801526717557252,0.48854961832061067,-0.067466267,0.3988005997001499,0.095952024
1.7089467810826416E12,2.4130434782608696,-6.369565217,3.4782608695652173,3958.974358974359,128,128,13.64743156998534,33.009131909505356,46.65656348,481.57450635129294,579.7733688084327,-5.038167939,5.328244275,0.41221374045801523,-0.077961019,0.39430284857571213,0.098950525
1.7089467811021729E12,2.4239130434782608,-6.413043478,3.5,3967.7655677655675,128,128,13.642960029001241,32.97819173076054,46.62115175976179,481.5765978785274,579.7657960374113,-5.251908397,5.435114503816794,0.48854961832061067,-0.074962519,0.3988005997001499,0.077961019
1.708946781121704E12,2.4239130434782608,-6.423913043,3.4891304347826084,3969.230769230769,128,128,13.62911267627629,32.961892242657214,46.59100491893351,481.5802039599662,579.7732245651752,-5.786259542,5.557251908396946,0.549618321,-0.074962519,0.3988005997001499,0.098950525
1.7089467811412354E12,2.4239130434782608,-6.423913043,3.532608695652174,3967.7655677655675,128,128,13.626804784155464,32.96362316174783,46.59042795,481.5812136627691,579.7701954567666,-5.435114504,6.015267175572519,0.9923664122137404,-0.08095952,0.39730134932533734,0.097451274
1.7089467811607666E12,2.369565217391304,-6.456521739,3.434782608695652,3967.7655677655675,128,128,13.633007244230182,32.96160375614211,46.594611000372296,481.5861179335258,579.7784894440758,-5.877862595,5.648854961832061,0.732824427,-0.073463268,0.3823088455772114,0.083958021
1.7089467811802979E12,2.380434782608696,-6.423913043,3.4565217391304346,3942.8571428571427,128,128,13.625867202981379,32.96174799939966,46.587615202381045,481.58994037985093,579.7707003,-5.145038168,5.6183206106870225,0.549618321,-0.074962519,0.3913043478260869,0.10344827586206896
1.708946781199829E12,2.358695652173913,-6.391304348,3.4130434782608696,3967.7655677655675,128,128,13.644474583205533,32.92835568527647,46.57283026848201,481.5912385691689,579.5092594038558,-5.06870229,6.473282442748092,0.6259541984732824,-0.068965517,0.4047976011994003,0.083958021
1.7089467812193604E12,2.380434782608696,-6.358695652,3.402173913043478,3969.230769230769,128,128,13.630338743965478,32.963911648262936,46.59425039222842,481.59383494780485,579.7734409300615,-5.435114504,6.061068702290076,0.8396946564885496,-0.070464768,0.3988005997001499,0.095952024
1.7089467812388916E12,2.369565217391304,-6.369565217,3.467391304347826,3960.43956,128,128,13.62139566199728,32.98439419083526,46.605789852832544,481.59527738038037,579.7670942267292,-5.694656489,6.458015267175572,1.2519083969465647,-0.085457271,0.39430284857571213,0.088455772
1.7089467812584229E12,2.391304347826087,-6.402173913,3.434782608695652,3967.7655677655675,128,128,13.625650838095051,32.97090744625419,46.59655828434924,481.59708042109975,579.7732967,-6.27480916,6,0.7480916030534351,-0.077961019,0.3913043478260869,0.098950525
1.708946781277954E12,2.369565217391304,-6.423913043,3.391304347826087,3967.7655677655675,128,128,13.620241715936867,32.977831122616664,46.598072838553534,481.5978737590163,579.7697627269939,-5.908396947,6.320610687,0.9770992366412213,-0.067466267,0.3988005997001499,0.11094452773613193
1.7089467812974854E12,2.402173913043478,-6.413043478,3.4130434782608696,3966.300366300366,128,128,13.623992040633208,32.98100447,46.60499651491601,481.5983786104177,579.7725033488874,-5.419847328,6.244274809160305,0.6717557251908397,-0.061469265,0.4047976011994003,0.10194902548725637
1.7089467813170166E12,2.391304347826087,-6.402173913,3.391304347826087,3969.230769230769,128,128,13.624496892034639,32.97105168951174,46.59554858154638,481.6034271,579.7725754705161,-5.511450382,6.366412213740458,0.9923664122137404,-0.077961019,0.39430284857571213,0.085457271
1.7089467813365479E12,2.369565217391304,-6.402173913,3.402173913043478,3944.322344322344,128,128,13.612885309801735,32.96939289,46.582278201851636,481.60869200333264,579.7713494,-5.251908397,6.900763358778626,1.0534351145038168,-0.073463268,0.39280359820089955,0.094452774
1.708946781356079E12,2.402173913043478,-6.402173913,3.4130434782608696,3969.230769230769,128,128,13.601850700599039,32.97018622996644,46.572036930565474,481.6097017061355,579.7750997275233,-4.946564885,6.305343511450381,1.2061068702290076,-0.074962519,0.39430284857571213,0.092953523
1.7089467813756104E12,2.391304347826087,-6.423913043,3.369565217391304,3967.7655677655675,128,128,13.615409566808887,32.965426202467235,46.58083576927612,481.6115047468549,579.7686809025623,-5.633587786,6.381679389312977,1.099236641221374,-0.076461769,0.38530734632683655,0.10194902548725637
1.7089467813951416E12,2.402173913043478,-6.413043478,3.369565217391304,3958.974358974359,128,128,13.616851999384403,32.95951222890762,46.57636422829202,481.6151829499225,579.7727918354025,-5.404580153,6.763358778625954,0.6564885496183206,-0.062968516,0.38830584707646176,0.10644677661169415
1.7089467814146729E12,2.402173913043478,-6.402173913,3.3260869565217392,3967.7655677655675,128,128,13.617501094043385,32.95561766095373,46.57311875499711,481.61410112549083,579.7763979168413,-4.839694656,6.65648855,1.0229007633587786,-0.077961019,0.4017991004497751,0.10344827586206896
1.708946781434204E12,2.380434782608696,-6.413043478,3.358695652173913,3967.7655677655675,128,128,13.602067065485366,32.95972859379395,46.56179565927931,481.61979873416414,579.7768306466139,-4.916030534,6.3969465648854955,1.0076335877862594,-0.076461769,0.4047976011994003,0.083958021
1.7089467814537354E12,2.4130434782608696,-6.434782609,3.358695652173913,3966.300366300366,128,128,13.618655040103798,32.939029686335296,46.55768472643909,481.6216017748835,579.4237952737565,-4.885496183,6.106870229007633,0.8702290076335878,-0.08095952,0.4002998500749625,0.094452774
1.7089467814732666E12,2.391304347826087,-6.402173913,3.3043478260869565,3967.7655677655675,128,128,13.598965835448007,32.95814191796088,46.557107753408886,481.62491936980723,579.7873604044153,-4.65648855,6.488549618320611,0.9618320610687022,-0.070464768,0.4017991004497751,0.10344827586206896
1.7089467814927979E12,2.391304347826087,-6.391304348,3.3152173913043477,3945.7875457875457,128,128,13.59925432196311,32.95237218765882,46.551626509621926,481.62780423495826,579.7726476,-4.351145038,6.229007633587786,0.9007633587786259,-0.073463268,0.39280359820089955,0.097451274
1.708946781512329E12,2.380434782608696,-6.413043478,3.3260869565217392,3969.230769230769,128,128,13.603437376432106,32.96571468898234,46.56915206541444,481.62866969450357,579.7722148623723,-4.015267176,6.702290076335878,0.8549618320610687,-0.077961019,0.3913043478260869,0.095952024
1.7089467815318604E12,2.391304347826087,-6.402173913,3.3478260869565215,3967.7655677655675,128,128,13.62240536480014,32.97018622996643,46.592591594766574,481.6281648431021,579.7699790918803,-4.290076336,6.549618320610687,0.7633587786259541,-0.076461769,0.38980509745127434,0.089955022
