"sep=	"
Shimmer_6D72_TimestampSync_Unix_CAL	Shimmer_6D72_Accel_LN_X_CAL	Shimmer_6D72_Accel_LN_Y_CAL	Shimmer_6D72_Accel_LN_Z_CAL	Shimmer_6D72_Battery_CAL	Shimmer_6D72_ECG_EMG_Status1_CAL	Shimmer_6D72_ECG_EMG_Status2_CAL	Shimmer_6D72_ECG_LA-RA_24BIT_CAL	Shimmer_6D72_ECG_LL-LA_24BIT_CAL	Shimmer_6D72_ECG_LL-RA_24BIT_CAL	Shimmer_6D72_ECG_RESP_24BIT_CAL	Shimmer_6D72_ECG_Vx-RL_24BIT_CAL	Shimmer_6D72_Gyro_X_CAL	Shimmer_6D72_Gyro_Y_CAL	Shimmer_6D72_Gyro_Z_CAL	Shimmer_6D72_Mag_X_CAL	Shimmer_6D72_Mag_Y_CAL	Shimmer_6D72_Mag_Z_CAL	
ms	m/(s^2)	m/(s^2)	m/(s^2)	mV	no_units	no_units	mV	mV	mV	mV	mV	deg/s	deg/s	deg/s	local_flux	local_flux	local_flux	
1.7104015951150981E12	2.760869565217391	-6.260869565217391	4.195652173913043	3944.322344322344	128.0	128.0	-9.772120090975774	-8.59401328492323	-18.366133375899004	484.59286863718853	483.9185314081349	-3.2061068702290076	8.778625954198473	1.3893129770992365	0.17841079460269865	0.8245877061469266	0.9220389805097451	
1.7104015951346301E12	2.7391304347826084	-6.282608695652174	4.184782608695652	3944.322344322344	128.0	128.0	-9.778106186164164	-8.59163327117363	-18.369739457337793	484.59503228605183	483.9268253954441	-2.2442748091603053	8.610687022900763	1.4045801526717556	0.15742128935532235	0.8305847076461769	0.9055472263868065	
1.710401595154162E12	2.75	-6.282608695652174	4.195652173913043	3944.322344322344	128.0	128.0	-9.78863594396543	-8.60685093484532	-18.39548687881075	484.5972680565439	483.92105566514203	-2.2900763358778624	8.412213740458014	1.114503816793893	0.17091454272863568	0.8110944527736131	0.9145427286356821	
1.7104015951736938E12	2.6956521739130435	-6.271739130434782	4.184782608695652	3920.879120879121	128.0	128.0	-9.788996552109309	-8.601441812687137	-18.390438364796445	484.5955371374532	483.9248781114672	-2.732824427480916	7.755725190839694	1.1603053435114503	0.18590704647676162	0.8365817091454273	0.9145427286356821	
1.7104015951932258E12	2.7717391304347827	-6.282608695652174	4.130434782608695	3945.7875457875457	128.0	128.0	-9.782433483890712	-8.60685093484532	-18.389284418736032	484.596258353741	483.9193247460514	-2.9923664122137406	7.740458015267175	1.3129770992366412	0.17841079460269865	0.8320839580209894	0.9220389805097451	
1.7104015952127578E12	2.760869565217391	-6.293478260869565	4.173913043478261	3945.7875457875457	128.0	128.0	-9.763321252265126	-8.514463128383532	-18.277784380648658	484.5977729079453	483.9166562457867	-3.49618320610687	7.541984732824427	1.2519083969465647	0.17091454272863568	0.8500749625187406	0.9010494752623688	
1.7104015952322898E12	2.7717391304347827	-6.33695652173913	4.239130434782608	3941.391941391941	128.0	128.0	-9.73858353359503	-8.383706615413026	-18.122290149008055	484.5981335160892	483.87778268787656	-3.480916030534351	7.251908396946565	0.7633587786259541	0.1829085457271364	0.8395802098950524	0.9115442278860569	
1.7104015952518215E12	2.760869565217391	-6.423913043478261	4.293478260869565	3945.7875457875457	128.0	128.0	-9.734616844012361	-8.499317586340617	-18.233934430352978	484.60087413798266	483.89581309507054	-3.145038167938931	6.3206106870229	0.6412213740458015	0.17691154422788605	0.8230884557721139	0.9280359820089955	
1.7104015952713535E12	2.7717391304347827	-6.391304347826087	4.3478260869565215	3945.7875457875457	128.0	128.0	-9.773346158664962	-8.660437305025733	-18.433783463690695	484.6015232326416	483.91716109718817	-3.5725190839694654	6.778625954198473	0.564885496183206	0.17091454272863568	0.8290854572713643	0.896551724137931	
1.7104015952908855E12	2.717391304347826	-6.315217391304348	4.239130434782608	3944.322344322344	128.0	128.0	-9.813157297749198	-8.712941850774508	-18.526099148523706	484.6001529216949	483.9417545726007	-3.6488549618320607	6.748091603053435	0.38167938931297707	0.1829085457271364	0.8245877061469266	0.9115442278860569	
1.7104015953104172E12	2.7065217391304346	-6.3478260869565215	4.163043478260869	3944.322344322344	128.0	128.0	-9.79274687680565	-8.728592244218854	-18.521339121024504	484.59589774559714	483.9594964932796	-3.8625954198473282	5.9541984732824424	0.061068702290076333	0.17691154422788605	0.8275862068965517	0.8950524737631184	
1.7104015953299492E12	2.8043478260869565	-6.33695652173913	4.206521739130435	3919.4139194139193	128.0	128.0	-9.786977146503586	-8.781962249512942	-18.56893939601653	484.59488804279425	484.02447808080655	-4.488549618320611	5.49618320610687	-0.13740458015267176	0.17391304347826086	0.8245877061469266	0.9145427286356821	
1.7104015953494812E12	2.8043478260869565	-6.315217391304348	4.195652173913043	3958.974358974359	128.0	128.0	-9.494523941817754	-8.475589570473382	-17.970113512291135	484.5912098397267	483.91910838116513	-4.641221374045801	5.236641221374046	-0.47328244274809156	0.1634182908545727	0.8365817091454273	0.9040479760119939	
1.7104015953690132E12	2.8478260869565215	-6.293478260869565	4.195652173913043	3944.322344322344	128.0	128.0	-9.38525967422243	-7.660903651822052	-17.046163326044482	484.59315712370363	483.1198564910718	-5.114503816793893	5.66412213740458	-0.38167938931297707	0.17691154422788605	0.8305847076461769	0.9100449775112444	
1.710401595388545E12	2.7717391304347827	-6.228260869565217	4.130434782608695	3939.9267399267396	128.0	128.0	-9.824047663694342	-8.874566420861056	-18.6986140845554	484.59373409673384	483.7450788909291	-4.778625954198473	4.534351145038168	-0.1984732824427481	0.16941529235382308	0.8305847076461769	0.9130434782608695	
1.710401595408077E12	2.782608695652174	-6.293478260869565	4.358695652173913	3945.7875457875457	128.0	128.0	-9.761590333174507	-8.71842309456147	-18.480013427735976	484.5921474209008	484.0782086942445	-5.740458015267175	2.748091603053435	-0.48854961832061067	0.17991004497751123	0.848575712143928	0.9175412293853074	
1.710401595427609E12	2.8043478260869565	-6.380434782608695	4.163043478260869	3945.7875457875457	128.0	128.0	-9.75776788684939	-8.750805705881799	-18.50857359273119	484.5901280152951	484.12047196870714	-6.122137404580153	4.8396946564885495	-0.1984732824427481	0.19490254872563717	0.8305847076461769	0.9055472263868065	
1.7104015954471406E12	2.684782608695652	-6.184782608695652	4.1521739130434785	3945.7875457875457	128.0	128.0	-9.728342262308868	-8.779293749248236	-18.507636011557103	484.5929407588173	484.1807656503637	0.015267175572519083	4.870229007633587	0.366412213740458	0.18440779610194902	0.841079460269865	0.9100449775112444	
1.7104015954666726E12	2.6956521739130435	-6.163043478260869	4.043478260869565	3947.252747252747	128.0	128.0	-9.732958046550518	-8.762561531372253	-18.49551957792277	484.59488804279425	484.1958390707778	-2.351145038167939	5.267175572519084	1.2061068702290076	0.1634182908545727	0.8290854572713643	0.9115442278860569	
1.7104015954862046E12	2.760869565217391	-6.228260869565217	4.065217391304348	3920.879120879121	128.0	128.0	-9.72076949128741	-8.725202527666394	-18.445972018953803	484.5939504616202	484.22338953297015	-6.351145038167939	2.5343511450381677	0.7633587786259541	0.17991004497751123	0.8455772113943029	0.9055472263868065	
1.7104015955057363E12	2.858695652173913	-6.239130434782608	4.108695652173913	3919.4139194139193	128.0	128.0	-9.740530817571976	-8.67421253612191	-18.414743353693886	484.5930128804461	484.25238242773804	-4.549618320610687	1.8473282442748091	0.6564885496183206	0.17241379310344826	0.8380809595202399	0.9100449775112444	
1.7104015955252683E12	2.8260869565217392	-6.315217391304348	4.1521739130434785	3945.7875457875457	128.0	128.0	-9.703316057123669	-8.637286262188706	-18.340602319312374	484.58810860968936	484.2862074716339	-3.9083969465648853	3.6488549618320607	0.7022900763358778	0.17841079460269865	0.8395802098950524	0.896551724137931	
1.7104015955448003E12	2.793478260869565	-6.239130434782608	4.076086956521739	3939.9267399267396	128.0	128.0	-9.699349367541	-8.618462517078225	-18.317811884619225	484.58782012317425	484.31483975825785	-3.5572519083969465	4.687022900763359	0.8091603053435115	0.19490254872563717	0.8305847076461769	0.9055472263868065	
1.7104015955643323E12	2.8152173913043477	-6.1521739130434785	3.9891304347826084	3945.7875457875457	128.0	128.0	-9.702234232692032	-8.577497431933573	-18.279731664625604	484.58919043412095	484.36171881696214	-2.687022900763359	3.7709923664122136	0.9007633587786259	0.17841079460269865	0.8245877061469266	0.9040479760119939	
1.710401595583864E12	2.8152173913043477	-6.184782608695652	4.043478260869565	3945.7875457875457	128.0	128.0	-9.685357771558497	-8.553841537695114	-18.23919930925361	484.5881807313181	484.38458137328405	-3.7251908396946565	4.030534351145038	0.7022900763358778	0.17991004497751123	0.8275862068965517	0.9130434782608695	
1.710401595603396E12	2.8260869565217392	-6.206521739130435	4.043478260869565	3929.6703296703295	128.0	128.0	-9.6787947033399	-8.53025776508543	-18.20905246842533	484.5894067990073	484.3698685610138	-4.458015267175572	4.870229007633587	0.564885496183206	0.17991004497751123	0.8305847076461769	0.9175412293853074	
1.710401595622928E12	2.8369565217391304	-6.239130434782608	4.076086956521739	3945.7875457875457	128.0	128.0	-9.698267543109363	-8.547999685764275	-18.246267228873638	484.5879643664318	484.29825178363944	-4.5038167938931295	4.99236641221374	0.7938931297709924	0.18440779610194902	0.8380809595202399	0.8995502248875562	
1.7104015956424597E12	2.8369565217391304	-6.239130434782608	4.065217391304348	3920.879120879121	128.0	128.0	-9.728053775793764	-8.643777208778527	-18.37183098457229	484.58947892063605	484.2688261590989	-4.549618320610687	6.152671755725191	0.9007633587786259	0.1619190404797601	0.8455772113943029	0.9100449775112444	
1.7104015956619917E12	2.782608695652174	-6.271739130434782	4.010869565217392	3945.7875457875457	128.0	128.0	-9.744497507154644	-8.682073793658471	-18.426571300813116	484.5901280152951	484.2554115361466	-4.290076335877862	6.687022900763359	0.33587786259541985	0.17841079460269865	0.8365817091454273	0.9190404797601199	
1.7104015956815237E12	2.880434782608696	-6.195652173913043	4.010869565217392	3944.322344322344	128.0	128.0	-9.71117731466023	-8.708614553047962	-18.41979186770819	484.5912819613555	484.26925888887155	-3.099236641221374	6.641221374045801	0.6564885496183206	0.1829085457271364	0.8395802098950524	0.9115442278860569	
1.7104015957010557E12	2.782608695652174	-6.195652173913043	4.010869565217392	3938.461538461538	128.0	128.0	-9.734905330527464	-8.692098700058306	-18.42700403058577	484.59431106976405	484.2758940787189	-3.3587786259541983	6.076335877862595	0.7786259541984732	0.19040479760119938	0.8320839580209894	0.9040479760119939	
1.7104015957205874E12	2.793478260869565	-6.217391304347826	4.010869565217392	3945.7875457875457	128.0	128.0	-9.718173112651481	-8.668803413963726	-18.386976526615207	484.5930128804461	484.30149725693434	-6.580152671755725	7.893129770992366	0.8091603053435115	0.17841079460269865	0.8290854572713643	0.9085457271364318	
1.7104015957401194E12	2.8369565217391304	-6.195652173913043	3.9891304347826084	3945.7875457875457	128.0	128.0	-9.714711274470243	-8.663827021578197	-18.37853829604844	484.59034438018136	484.30438212208537	-5.297709923664122	6.793893129770992	0.916030534351145	0.17991004497751123	0.8275862068965517	0.9055472263868065	
1.7104015957596514E12	2.8043478260869565	-6.304347826086956	4.043478260869565	3944.322344322344	128.0	128.0	-9.728198019051316	-8.649330574194263	-18.37752859324558	484.587892244803	484.31844583969666	-5.374045801526718	7.6183206106870225	0.9312977099236641	0.18590704647676162	0.8290854572713643	0.9145427286356821	
1.710401595779183E12	2.760869565217391	-6.315217391304348	4.054347826086956	3944.322344322344	128.0	128.0	-9.72899135696785	-8.641180830142599	-18.370172187110448	484.59344561021874	484.3164985557197	-5.7251908396946565	8.839694656488549	1.1755725190839694	0.17691154422788605	0.841079460269865	0.9055472263868065	
1.710401595798715E12	2.782608695652174	-6.271739130434782	4.065217391304348	3920.879120879121	128.0	128.0	-9.738727776852581	-8.641180830142599	-18.37990860699518	484.59048862343894	484.3204652453024	-4.213740458015267	7.98473282442748	1.0381679389312977	0.17091454272863568	0.8320839580209894	0.9085457271364318	
1.710401595818247E12	2.7717391304347827	-6.25	4.043478260869565	3945.7875457875457	128.0	128.0	-9.730938640944796	-8.65553303426898	-18.386471675213777	484.5943831913928	484.3386398957539	-3.9083969465648853	7.755725190839694	1.8473282442748091	0.17841079460269865	0.8365817091454273	0.9115442278860569	
1.7104015958377788E12	2.7391304347826084	-6.25	4.043478260869565	3945.7875457875457	128.0	128.0	-9.732381073520312	-8.65502818286755	-18.387409256387862	484.59337348859	484.33517805757265	-4.427480916030534	7.129770992366412	1.66412213740458	0.16941529235382308	0.8350824587706147	0.9025487256371814	
1.7104015958573108E12	2.760869565217391	-6.271739130434782	4.0978260869565215	3939.9267399267396	128.0	128.0	-9.718317355909033	-8.59697027170304	-18.315287627612072	484.59315712370363	484.3475829777221	-5.480916030534351	6.99236641221374	1.3435114503816794	0.17241379310344826	0.8305847076461769	0.9100449775112444	
1.7104015958768428E12	2.7717391304347827	-6.293478260869565	4.065217391304348	3947.252747252747	128.0	128.0	-9.705191219471839	-8.538407509137095	-18.243598728608934	484.59286863718853	484.33387986825466	-5.633587786259541	6.5038167938931295	1.4351145038167938	0.18440779610194902	0.8350824587706147	0.9025487256371814	
1.7104015958963748E12	2.793478260869565	-6.326086956521739	4.054347826086956	3945.7875457875457	128.0	128.0	-9.682256541521138	-8.41839711885418	-18.10065366037532	484.5948159211655	484.3106567037889	-5.145038167938931	6.99236641221374	1.5419847328244274	0.1649175412293853	0.8350824587706147	0.9175412293853074	
1.7104015959159065E12	2.793478260869565	-6.304347826086956	4.08695652173913	3944.322344322344	128.0	128.0	-9.66422613432719	-8.562496133148208	-18.2267222674754	484.59575350233956	484.3392168687841	-4.931297709923664	7.511450381679389	1.083969465648855	0.17991004497751123	0.8200899550224887	0.9205397301349325	
1.7104015959354385E12	2.7717391304347827	-6.282608695652174	4.076086956521739	3947.252747252747	128.0	128.0	-9.727476802763558	-8.66909190047883	-18.396568703242387	484.596258353741	484.36611823631745	-3.7404580152671754	7.1603053435114505	0.9312977099236641	0.15892053973013492	0.8440779610194902	0.9220389805097451	
1.7104015959549705E12	2.782608695652174	-6.293478260869565	4.021739130434782	3922.344322344322	128.0	128.0	-9.739376871511563	-8.680631361082956	-18.42000823259452	484.59488804279425	484.3724649396497	-3.66412213740458	6.824427480916031	1.0381679389312977	0.17091454272863568	0.8290854572713643	0.9190404797601199	
1.7104015959745022E12	2.782608695652174	-6.25	3.9565217391304346	3945.7875457875457	128.0	128.0	-9.739376871511563	-8.676231941727632	-18.415608813239196	484.59279651555977	484.39410142828245	-3.3587786259541983	7.526717557251908	1.1450381679389312	0.17691154422788605	0.8275862068965517	0.9055472263868065	
1.7104015959940342E12	2.717391304347826	-6.228260869565217	3.934782608695652	3945.7875457875457	128.0	128.0	-9.751781791661	-8.733640758233161	-18.48542254989416	484.5915704478706	484.4937013976218	-2.8702290076335877	7.32824427480916	1.3282442748091603	0.17691154422788605	0.8305847076461769	0.9055472263868065	
1.7104015960135662E12	2.7282608695652173	-6.260869565217391	3.9565217391304346	3938.461538461538	128.0	128.0	-9.536787216280368	-8.520232858685597	-18.057020074965966	484.5904165018102	484.4163148899454	-3.618320610687023	7.114503816793893	1.0687022900763359	0.1649175412293853	0.8305847076461769	0.9130434782608695	
1.7104015960330981E12	2.7717391304347827	-6.239130434782608	4.021739130434782	3945.7875457875457	128.0	128.0	-9.539744203060176	-7.760143013017538	-17.299887216077714	484.5930128804461	483.63956494803017	-4.244274809160305	6.717557251908397	1.1908396946564885	0.1634182908545727	0.8215892053973013	0.9115442278860569	
1.71040159605263E12	2.717391304347826	-6.260869565217391	3.7717391304347827	3945.7875457875457	128.0	128.0	-9.710239733486144	-8.730323163309475	-18.44056289679562	484.594960164423	484.2807983494757	-5.480916030534351	5.679389312977099	0.6259541984732824	0.16941529235382308	0.8200899550224887	0.9205397301349325	
1.7104015960721619E12	2.782608695652174	-6.3478260869565215	4.228260869565217	3944.322344322344	128.0	128.0	-9.711898530947987	-8.573242255835805	-18.285140786783792	484.5933013669612	484.4214355255885	-7.1603053435114505	4.717557251908397	1.114503816793893	0.17841079460269865	0.8365817091454273	0.9250374812593702	
1.7104015960916938E12	2.8369565217391304	-6.315217391304348	3.8478260869565215	3945.7875457875457	128.0	128.0	-9.718677964052912	-8.584709594811155	-18.303387558864067	484.59618623211225	484.4491302310384	-5.969465648854961	6.305343511450381	0.7938931297709924	0.17841079460269865	0.8320839580209894	0.9145427286356821	
1.7104015961112256E12	2.6956521739130435	-6.108695652173913	3.9456521739130435	3919.4139194139193	128.0	128.0	-9.684420190384412	-8.597619366362018	-18.28203955674643	484.5938062183626	484.47163217921644	-1.0534351145038168	9.83206106870229	0.7938931297709924	0.1829085457271364	0.8290854572713643	0.9190404797601199	
1.7104015961307576E12	2.684782608695652	-6.293478260869565	3.902173913043478	3945.7875457875457	128.0	128.0	-9.689396582769941	-8.57821864822133	-18.26761523099127	484.59532077256694	484.4652133542554	-6.99236641221374	8.793893129770993	1.3587786259541985	0.17391304347826086	0.8440779610194902	0.9085457271364318	
1.7104015961502896E12	2.8478260869565215	-6.3478260869565215	4.054347826086956	3945.7875457875457	128.0	128.0	-9.686728082505237	-8.543095415007521	-18.229823497512758	484.5924359074159	484.47004550338335	-8.458015267175572	5.557251908396946	0.4580152671755725	0.18590704647676162	0.8365817091454273	0.9190404797601199	
1.7104015961698213E12	2.793478260869565	-6.380434782608695	3.967391304347826	3936.9963369963366	128.0	128.0	-9.687160812277892	-8.492033301834262	-18.179194114112153	484.59431106976405	484.4755267471703	-7.2824427480916025	6.931297709923664	0.366412213740458	0.17091454272863568	0.8320839580209894	0.9250374812593702	
1.7104015961893533E12	2.75	-6.3478260869565215	4.021739130434782	3919.4139194139193	128.0	128.0	-9.67518862190111	-8.456621582105349	-18.13181020400646	484.5932292453324	484.47906070698036	-4.67175572519084	7.022900763358779	0.12213740458015267	0.1829085457271364	0.8440779610194902	0.9115442278860569	
1.7104015962088853E12	2.782608695652174	-6.25	3.9130434782608696	3945.7875457875457	128.0	128.0	-9.66422613432719	-8.420560767717454	-18.084786902044645	484.59517652930936	484.5351713341679	-4.580152671755725	7.206106870229007	0.21374045801526717	0.17391304347826086	0.8365817091454273	0.9145427286356821	
1.7104015962284172E12	2.782608695652174	-6.206521739130435	3.869565217391304	3945.7875457875457	128.0	128.0	-9.657230336335939	-8.3882502780259	-18.04548061436184	484.5972680565439	484.55031687621084	-4.030534351145038	7.038167938931298	0.41221374045801523	0.17841079460269865	0.8290854572713643	0.9145427286356821	
1.710401596247949E12	2.75	-6.260869565217391	3.9130434782608696	3947.252747252747	128.0	128.0	-9.648215132738965	-8.36899380314276	-18.017208935881726	484.59344561021874	484.5694291078364	-4.198473282442748	7.572519083969465	0.42748091603053434	0.17841079460269865	0.8290854572713643	0.9220389805097451	
1.710401596267481E12	2.7717391304347827	-6.282608695652174	3.9239130434782608	3922.344322344322	128.0	128.0	-9.663288553153105	-8.340505759776324	-18.00379431292943	484.5938062183626	484.5331519285622	-5.847328244274809	7.511450381679389	0.366412213740458	0.18590704647676162	0.8290854572713643	0.9145427286356821	
1.710401596287013E12	2.7717391304347827	-6.326086956521739	3.934782608695652	3947.252747252747	128.0	128.0	-9.660403688002074	-8.390269683631622	-18.050673371633696	484.5956813807108	484.4714158143301	-5.145038167938931	7.2824427480916025	0.5801526717557252	0.17691154422788605	0.8275862068965517	0.9175412293853074	
1.7104015963065447E12	2.760869565217391	-6.369565217391304	3.902173913043478	3945.7875457875457	128.0	128.0	-9.731659857232554	-8.48727327433506	-18.218933131567614	484.5945274346504	484.4363647027451	-4.625954198473282	7.3893129770992365	0.564885496183206	0.18440779610194902	0.8380809595202399	0.9130434782608695	
1.7104015963260767E12	2.75	-6.33695652173913	3.9891304347826084	3938.461538461538	128.0	128.0	-9.73259743840664	-8.523478331980506	-18.256075770387145	484.5940947048777	484.4255464584287	-4.534351145038168	6.702290076335878	0.07633587786259542	0.19790104947526235	0.8290854572713643	0.9250374812593702	
1.7104015963456086E12	2.8043478260869565	-6.228260869565217	3.8804347826086953	3947.252747252747	128.0	128.0	-9.739665358026667	-8.54489845572692	-18.284563813753586	484.5945274346504	484.431244067102	-1.8931297709923662	6.916030534351145	0.564885496183206	0.17091454272863568	0.8245877061469266	0.9250374812593702	
1.7104015963651406E12	2.717391304347826	-6.228260869565217	3.8478260869565215	3945.7875457875457	128.0	128.0	-9.740242331056873	-8.534945670955857	-18.27518800201273	484.59546501582446	484.43795137857813	-3.3740458015267176	7.0534351145038165	0.48854961832061067	0.1649175412293853	0.8200899550224887	0.9100449775112444	
1.7104015963846724E12	2.793478260869565	-6.293478260869565	3.9130434782608696	3944.322344322344	128.0	128.0	-9.736131398216653	-8.529464427168897	-18.26559582538555	484.59604198885467	484.44595687937226	-4.015267175572519	6.885496183206107	1.0076335877862594	0.1649175412293853	0.8230884557721139	0.9175412293853074	
1.7104015964042043E12	2.8260869565217392	-6.282608695652174	3.934782608695652	3945.7875457875457	128.0	128.0	-9.73396774935338	-8.554706997240427	-18.288674746593806	484.6012347461265	484.4639151649374	-4.412213740458015	6.824427480916031	0.48854961832061067	0.1874062968515742	0.8380809595202399	0.9175412293853074	
1.7104015964237363E12	2.782608695652174	-6.33695652173913	3.9239130434782608	3922.344322344322	128.0	128.0	-9.733462897951949	-8.5544906323541	-18.287953530306048	484.5989268540057	484.46824246266397	-3.7404580152671754	7.908396946564885	0.2900763358778626	0.18440779610194902	0.8275862068965517	0.9280359820089955	
1.7104015964628E12	2.7717391304347827	-6.326086956521739	3.934782608695652	3945.7875457875457	128.0	128.0	-9.741612642003613	-8.55037969951388	-18.291992341517492	484.5989268540057	484.4664394219446	-2.16793893129771	8.580152671755725	0.7480916030534351	0.18440779610194902	0.8200899550224887	0.9310344827586207	
1.710401596482332E12	2.7717391304347827	-6.282608695652174	3.9130434782608696	3936.9963369963366	128.0	128.0	-9.725313153900284	-8.496649086075912	-18.221962239976197	484.6023165705582	484.46499698936907	-1.8778625954198473	7.83206106870229	0.8091603053435115	0.16941529235382308	0.8380809595202399	0.9055472263868065	
1.7104015965018638E12	2.782608695652174	-6.25	3.9239130434782608	3945.7875457875457	128.0	128.0	-9.736636249618083	-8.43159537692015	-18.168231626538233	484.59762866468776	484.45129387990164	-2.3053435114503817	7.343511450381679	0.6564885496183206	0.1664167916041979	0.8365817091454273	0.9115442278860569	
1.7104015965213958E12	2.782608695652174	-6.271739130434782	3.9130434782608696	3944.322344322344	128.0	128.0	-9.697546326821605	-8.407001901507606	-18.10454822832921	484.5983498809755	484.4372301622904	-2.732824427480916	7.343511450381679	0.47328244274809156	0.1934032983508246	0.8320839580209894	0.9190404797601199	
1.7104015965409277E12	2.782608695652174	-6.282608695652174	3.967391304347826	3944.322344322344	128.0	128.0	-9.705840314130821	-8.53076261648686	-18.236602930617682	484.5977729079453	484.4450192981982	-2.4732824427480917	6.870229007633587	0.6870229007633587	0.18440779610194902	0.8275862068965517	0.9205397301349325	
1.7104015965604597E12	2.793478260869565	-6.304347826086956	3.967391304347826	3944.322344322344	128.0	128.0	-9.769018860938415	-8.606778813216545	-18.37579767415496	484.5980613944604	484.4749497741401	-1.816793893129771	6.7328244274809155	0.13740458015267176	0.1829085457271364	0.8320839580209894	0.9250374812593702	
1.7104015965799915E12	2.8043478260869565	-6.293478260869565	3.8478260869565215	3920.879120879121	128.0	128.0	-9.762672157606143	-8.62949712628092	-18.392169283887064	484.60044140821003	484.4731467334207	-1.5725190839694656	7.007633587786259	0.564885496183206	0.17091454272863568	0.8470764617691154	0.9040479760119939	
1.7104015965995234E12	2.8152173913043477	-6.228260869565217	3.8369565217391304	3945.7875457875457	128.0	128.0	-9.760292143856542	-8.63086743722766	-18.391159581084203	484.6028935435884	484.4655739623993	-1.5419847328244274	6.717557251908397	0.5343511450381679	0.19040479760119938	0.8320839580209894	0.9040479760119939	
1.7104015966190554E12	2.8043478260869565	-6.239130434782608	3.869565217391304	3945.7875457875457	128.0	128.0	-9.777168604990079	-8.705729687896929	-18.482898292887008	484.6000808000661	484.604624462679	-2.1068702290076335	6.8396946564885495	0.549618320610687	0.16941529235382308	0.8200899550224887	0.9175412293853074	
1.7104015966385872E12	2.8152173913043477	-6.239130434782608	3.858695652173913	3936.9963369963366	128.0	128.0	-9.459400708603944	-7.827937344066779	-17.287338052670723	484.5993595837784	484.0174822828153	-2.5801526717557253	7.297709923664121	0.7480916030534351	0.17091454272863568	0.8365817091454273	0.9220389805097451	
1.7104015966581191E12	2.8260869565217392	-6.206521739130435	4.0	3945.7875457875457	128.0	128.0	-9.78452501112521	-8.426907471049722	-18.21143248217493	484.60274930033086	484.06760681481444	-2.9770992366412212	6.961832061068702	1.0229007633587786	0.1934032983508246	0.8290854572713643	0.9085457271364318	
1.7104015966776511E12	2.8152173913043477	-6.228260869565217	3.717391304347826	3945.7875457875457	128.0	128.0	-9.731299249088675	-8.561702795231678	-18.293002044320353	484.60145111101286	484.4369416757753	-4.641221374045801	6.1679389312977095	0.47328244274809156	0.18590704647676162	0.8395802098950524	0.9250374812593702	
1.710401596697183E12	2.8478260869565215	-6.369565217391304	4.08695652173913	3945.7875457875457	128.0	128.0	-9.737501709163393	-8.568410106707827	-18.30591181587122	484.60181171915673	484.48555165357016	-6.8396946564885495	6.106870229007633	0.8702290076335878	0.17091454272863568	0.8290854572713643	0.9115442278860569	
1.7104015967167148E12	2.782608695652174	-6.1521739130434785	3.9239130434782608	3945.7875457875457	128.0	128.0	-9.740530817571976	-8.548504537165709	-18.289035354737685	484.60628326014086	484.4937013976218	-1.9389312977099236	6.809160305343511	0.6717557251908397	0.18590704647676162	0.8320839580209894	0.9190404797601199	
1.7104015967362468E12	2.8260869565217392	-6.119565217391304	3.9239130434782608	3920.879120879121	128.0	128.0	-9.733462897951949	-8.55550033515696	-18.28896323310891	484.60714871968617	484.5009856821282	0.48854961832061067	11.114503816793892	1.0076335877862594	0.16941529235382308	0.8455772113943029	0.9205397301349325	
1.7104015967557788E12	2.8152173913043477	-6.282608695652174	3.858695652173913	3947.252747252747	128.0	128.0	-9.72812589742254	-8.537830536106888	-18.26595643352943	484.6079420576027	484.4910328973571	-5.679389312977099	8.030534351145038	1.3587786259541985	0.17241379310344826	0.8230884557721139	0.9205397301349325	
1.7104015967753105E12	2.858695652173913	-6.326086956521739	3.9239130434782608	3945.7875457875457	128.0	128.0	-9.720120396628428	-8.503500640809612	-18.22362103743804	484.60498507082286	484.4869219645169	-5.9541984732824424	8.702290076335878	1.2213740458015268	0.18440779610194902	0.8275862068965517	0.9235382308845577	
1.7104015967948425E12	2.8043478260869565	-6.358695652173913	3.902173913043478	3936.9963369963366	128.0	128.0	-9.708364571137974	-8.46635800199008	-18.174722573128054	484.60512931408044	484.4931965462204	-2.8854961832061066	8.13740458015267	1.1603053435114503	0.17391304347826086	0.8290854572713643	0.9190404797601199	
1.7104015968143745E12	2.760869565217391	-6.358695652173913	3.9456521739130435	3945.7875457875457	128.0	128.0	-9.695526921215883	-8.44854395968246	-18.144070880898344	484.6037590031337	484.48699408614567	-2.183206106870229	6.1679389312977095	0.9465648854961831	0.1829085457271364	0.8245877061469266	0.9115442278860569	
1.7104015968339062E12	2.7282608695652173	-6.282608695652174	3.891304347826087	3945.7875457875457	128.0	128.0	-9.689901434171372	-8.405703712189641	-18.095605146361013	484.60332627336106	484.5124530211035	-2.229007633587786	4.7328244274809155	0.7786259541984732	0.1664167916041979	0.8365817091454273	0.9115442278860569	
1.7104015968534382E12	2.75	-6.25	3.9130434782608696	3944.322344322344	128.0	128.0	-9.68377109572543	-8.399789738630027	-18.083560834355456	484.60527355733797	484.5343058746226	-2.549618320610687	5.190839694656488	1.2213740458015268	0.1829085457271364	0.8395802098950524	0.9145427286356821	
1.7104015968729702E12	2.793478260869565	-6.25	3.934782608695652	3945.7875457875457	128.0	128.0	-9.697402083564054	-8.37505201995993	-18.072454103523985	484.6041917329064	484.51692456208764	-3.3587786259541983	6.8396946564885495	1.3893129770992365	0.18440779610194902	0.848575712143928	0.9130434782608695	
1.7104015968925022E12	2.8369565217391304	-6.282608695652174	3.8804347826086953	3919.4139194139193	128.0	128.0	-9.693579637238937	-8.400727319804112	-18.09430695704305	484.60188384078555	484.47062247641355	-3.0229007633587783	7.7251908396946565	1.816793893129771	0.17391304347826086	0.8320839580209894	0.9145427286356821	
1.710401596912034E12	2.8260869565217392	-6.315217391304348	3.9239130434782608	3945.7875457875457	128.0	128.0	-9.731876222118881	-8.483955679411373	-18.215831901530255	484.60354263824735	484.44624536588736	-2.564885496183206	7.709923664122137	1.648854961832061	0.17841079460269865	0.8440779610194902	0.9040479760119939	
1.710401596931566E12	2.8043478260869565	-6.33695652173913	3.869565217391304	3945.7875457875457	128.0	128.0	-9.75005087257038	-8.57367498560846	-18.32372585817884	484.5959698672259	484.4258349449438	-1.3129770992366412	7.2824427480916025	1.5419847328244274	0.17091454272863568	0.8320839580209894	0.9220389805097451	
1.710401596951098E12	2.8152173913043477	-6.369565217391304	4.054347826086956	3935.531135531135	128.0	128.0	-9.765773387643504	-8.610168529769007	-18.37594191741251	484.5944553130216	484.4089584838103	2.4427480916030535	7.358778625954198	1.5419847328244274	0.17991004497751123	0.8350824587706147	0.9130434782608695	
1.7104015969706296E12	2.8478260869565215	-6.260869565217391	3.891304347826087	3945.7875457875457	128.0	128.0	-9.760220022227767	-8.607427907875529	-18.367647930103296	484.5995038270359	484.4177573225209	0.061068702290076333	8.80916030534351	1.8778625954198473	0.17091454272863568	0.8320839580209894	0.9010494752623688	
1.7104015969901616E12	2.75	-6.260869565217391	3.967391304347826	3944.322344322344	128.0	128.0	-9.759570927568785	-8.597835731248349	-18.357406658817133	484.5951044076806	484.41977672812664	-0.8091603053435115	8.67175572519084	2.2900763358778624	0.18440779610194902	0.8275862068965517	0.9175412293853074	
1.7104015970096936E12	2.793478260869565	-6.315217391304348	3.9456521739130435	3944.322344322344	128.0	128.0	-9.756181211016322	-8.592570852347716	-18.34875206336404	484.59885473237694	484.4308113373293	-0.9923664122137404	7.511450381679389	2.015267175572519	0.17391304347826086	0.8215892053973013	0.9250374812593702	
1.7104015970292256E12	2.8369565217391304	-6.315217391304348	4.0	3944.322344322344	128.0	128.0	-9.773346158664962	-8.587378095075858	-18.36072425374082	484.59885473237694	484.45021205547005	-1.1755725190839694	8.580152671755725	2.045801526717557	0.19490254872563717	0.8350824587706147	0.9025487256371814	
1.7104015970487573E12	2.760869565217391	-6.3478260869565215	4.021739130434782	3920.879120879121	128.0	128.0	-9.759066076167354	-8.587305973447084	-18.346372049614438	484.60087413798266	484.4333355943365	-0.564885496183206	10.0	1.9541984732824427	0.1874062968515742	0.8350824587706147	0.9055472263868065	
1.7104015970682893E12	2.7282608695652173	-6.33695652173913	4.032608695652174	3945.7875457875457	128.0	128.0	-9.757118792190408	-8.60209090734612	-18.359209699536528	484.6097450983221	484.44155746001695	1.3129770992366412	9.587786259541984	2.2442748091603053	0.17691154422788605	0.841079460269865	0.9055472263868065	
1.7104015970878213E12	2.7282608695652173	-6.293478260869565	4.054347826086956	3945.7875457875457	128.0	128.0	-9.75553211635734	-8.609880043253906	-18.365412159611246	484.6118366255566	484.43203740501855	1.0381679389312977	9.511450381679388	1.9694656488549618	0.1829085457271364	0.8215892053973013	0.9010494752623688	
1.710401597107353E12	2.75	-6.293478260869565	4.021739130434782	3936.9963369963366	128.0	128.0	-9.75055572397181	-8.520881953344578	-18.27143767731639	484.61198086881416	484.4183342955511	0.7786259541984732	9.465648854961831	2.1068702290076335	0.17841079460269865	0.8245877061469266	0.9250374812593702	
1.710401597126885E12	2.6956521739130435	-6.271739130434782	4.010869565217392	3919.4139194139193	128.0	128.0	-9.712763990493297	-8.409309793628431	-18.122073784121728	484.61436088256374	484.3846534949128	0.015267175572519083	8.870229007633588	2.045801526717557	0.19790104947526235	0.8500749625187406	0.9190404797601199	
1.710401597146417E12	2.7065217391304346	-6.304347826086956	4.0978260869565215	3947.252747252747	128.0	128.0	-9.696392380761193	-8.521963777776214	-18.218356158537407	484.6124135985868	484.3883316979804	-0.2900763358778626	8.763358778625953	2.045801526717557	0.1664167916041979	0.8290854572713643	0.9115442278860569	
1.7104015971659487E12	2.6956521739130435	-6.293478260869565	4.108695652173913	3945.7875457875457	128.0	128.0	-9.73274168166419	-8.603244853406533	-18.335986535070724	484.61306269324575	484.39525537434287	-0.12213740458015267	8.534351145038167	2.0	0.1829085457271364	0.8395802098950524	0.9190404797601199	
1.7104015971854807E12	2.75	-6.282608695652174	4.0978260869565215	3945.7875457875457	128.0	128.0	-9.768658252794536	-8.676881036386613	-18.44553928918115	484.6098893415796	484.3981402394939	0.47328244274809156	9.374045801526718	1.9236641221374045	0.17841079460269865	0.8215892053973013	0.9040479760119939	
1.7104015972050127E12	2.7282608695652173	-6.271739130434782	4.054347826086956	3920.879120879121	128.0	128.0	-9.760364265485318	-8.707749093502652	-18.46811335898797	484.6106105578674	484.414511849226	1.0534351145038168	9.694656488549619	1.9236641221374045	0.17691154422788605	0.841079460269865	0.9130434782608695	
1.7104015972245447E12	2.7065217391304346	-6.271739130434782	4.076086956521739	3945.7875457875457	128.0	128.0	-9.766855212075141	-8.705513323010601	-18.472368535085742	484.6163081665407	484.43939381115365	0.8702290076335878	9.923664122137405	1.9541984732824427	0.1829085457271364	0.8365817091454273	0.9220389805097451	
1.7104015972440764E12	2.6956521739130435	-6.25	4.021739130434782	3944.322344322344	128.0	128.0	-9.639488415657093	-8.690367780967689	-18.32985619662478	484.61876030191905	484.49038380269815	0.6106870229007634	10.625954198473282	2.3206106870229006	0.17691154422788605	0.8305847076461769	0.9130434782608695	
1.7104015972636084E12	2.717391304347826	-6.217391304347826	4.065217391304348	3935.531135531135	128.0	128.0	-9.46408861447437	-7.376744434445435	-16.840833048919805	484.6176784774874	483.452409321357	0.366412213740458	10.51908396946565	2.6412213740458013	0.17241379310344826	0.8275862068965517	0.9100449775112444	
1.7104015972831404E12	2.652173913043478	-6.25	4.184782608695652	3944.322344322344	128.0	128.0	-9.732885924921742	-8.785712574209281	-18.518598499131024	484.6209960724111	484.253031522397	-1.6946564885496183	10.427480916030534	2.1221374045801524	0.18440779610194902	0.841079460269865	0.9175412293853074	
1.710401597302672E12	2.6956521739130435	-6.206521739130435	4.054347826086956	3944.322344322344	128.0	128.0	-9.709157909054507	-8.612981273291265	-18.322139182345772	484.6196978830931	484.3841486435114	-3.236641221374046	9.541984732824426	2.4122137404580153	0.17991004497751123	0.8305847076461769	0.9280359820089955	
1.710401597322204E12	2.717391304347826	-6.423913043478261	4.358695652173913	3944.322344322344	128.0	128.0	-9.719759788484549	-8.644282060179957	-18.364041848664506	484.62178941032766	484.4083815107801	1.1450381679389312	9.893129770992367	2.4580152671755724	0.17391304347826086	0.8365817091454273	0.9250374812593702	
1.710401597341736E12	2.6630434782608696	-6.271739130434782	4.228260869565217	3945.7875457875457	128.0	128.0	-9.707499111592664	-8.670967062827	-18.378466174419664	484.6272706541146	484.43456166202566	2.5038167938931295	11.709923664122137	1.8015267175572518	0.18590704647676162	0.8245877061469266	0.9190404797601199	
1.7104015973612678E12	2.5869565217391304	-6.228260869565217	4.184782608695652	3920.879120879121	128.0	128.0	-9.701008165002843	-8.654956061238774	-18.355964226241618	484.6257560999103	484.4511496366441	-2.3053435114503817	11.114503816793892	1.984732824427481	0.1649175412293853	0.841079460269865	0.9130434782608695	
1.7104015973807998E12	2.532608695652174	-6.293478260869565	4.141304347826087	3945.7875457875457	128.0	128.0	-9.69300266420873	-8.626540139501113	-18.319542803709844	484.6201306128658	484.4684588275503	-1.5114503816793892	7.572519083969465	1.618320610687023	0.17241379310344826	0.8305847076461769	0.9175412293853074	
1.7104015974003318E12	2.6956521739130435	-6.25	4.173913043478261	3945.7875457875457	128.0	128.0	-9.699565732427327	-8.600287866626726	-18.299853599054053	484.62114031566864	484.4772576662609	-1.5725190839694656	7.572519083969465	1.3587786259541985	0.16941529235382308	0.8275862068965517	0.9130434782608695	
1.7104015974198638E12	2.641304347826087	-6.260869565217391	4.1521739130434785	3935.531135531135	128.0	128.0	-9.675693473302541	-8.58182472966012	-18.25751820296266	484.6163081665407	484.51064998038413	-1.618320610687023	8.106870229007633	0.9770992366412213	0.17841079460269865	0.8290854572713643	0.9295352323838081	
1.7104015974393955E12	2.5760869565217392	-6.260869565217391	4.195652173913043	3944.322344322344	128.0	128.0	-9.672736486522734	-8.545042698984467	-18.2177791855072	484.6159475583968	484.53481072602403	-1.9236641221374045	7.0534351145038165	0.8702290076335878	0.17841079460269865	0.8395802098950524	0.9115442278860569	
1.7104015974589275E12	2.619565217391304	-6.217391304347826	4.1521739130434785	3945.7875457875457	128.0	128.0	-9.654417592813683	-8.531483832774619	-18.185901425588302	484.61580331513926	484.583709190334	-2.1374045801526718	6.045801526717557	1.1603053435114503	0.1829085457271364	0.8215892053973013	0.9040479760119939	
1.7104015974784595E12	2.630434782608696	-6.25	4.163043478260869	3944.322344322344	128.0	128.0	-9.656148511904302	-8.516698898875582	-18.172847410779884	484.6157311935105	484.59885473237694	-2.916030534351145	5.923664122137405	0.9618320610687022	0.17991004497751123	0.8380809595202399	0.9055472263868065	
1.7104015974979912E12	2.608695652173913	-6.282608695652174	4.184782608695652	3945.7875457875457	128.0	128.0	-9.652686673723064	-8.485253868729338	-18.1379405424524	484.6171015044572	484.59077710995405	-2.0	6.030534351145038	1.099236641221374	0.18440779610194902	0.8305847076461769	0.9235382308845577	
1.7104015975175232E12	2.608695652173913	-6.293478260869565	4.228260869565217	3920.879120879121	128.0	128.0	-9.652326065579185	-8.523838940124385	-18.17616500570357	484.61861605866153	484.52348763030625	-1.816793893129771	6.412213740458015	0.7938931297709924	0.15892053973013492	0.8365817091454273	0.9250374812593702	
1.7104015975370552E12	2.641304347826087	-6.33695652173913	4.184782608695652	3919.4139194139193	128.0	128.0	-9.665884931789034	-8.625818923213355	-18.29170385500239	484.61363966627596	484.4756709904279	-1.83206106870229	6.595419847328244	0.916030534351145	0.18440779610194902	0.8350824587706147	0.9130434782608695	
1.7104015975565872E12	2.630434782608696	-6.293478260869565	4.08695652173913	3945.7875457875457	128.0	128.0	-9.707859719736543	-8.714961256380231	-18.422820976116775	484.61818332888885	484.46975701686824	-0.549618320610687	6.748091603053435	1.1450381679389312	0.17091454272863568	0.8395802098950524	0.9145427286356821	
1.710401597576119E12	2.6956521739130435	-6.173913043478261	4.130434782608695	3935.531135531135	128.0	128.0	-9.70980700371349	-8.724769797893739	-18.43457680160723	484.6189766668054	484.4758152336854	-0.04580152671755725	6.122137404580153	1.129770992366412	0.17241379310344826	0.8200899550224887	0.9130434782608695	
1.710401597595651E12	2.5760869565217392	-6.271739130434782	4.184782608695652	3945.7875457875457	128.0	128.0	-9.716081585416983	-8.701762998314262	-18.417844583731245	484.6252512485089	484.4822340586465	-3.32824427480916	7.740458015267175	1.2061068702290076	0.17391304347826086	0.8440779610194902	0.9145427286356821	
1.7104015976151829E12	2.630434782608696	-6.25	4.25	3945.7875457875457	128.0	128.0	-9.709374273940835	-8.699599349450988	-18.408973623391823	484.6227991131305	484.4786279772077	-1.9083969465648853	6.106870229007633	1.3740458015267174	0.15142428785607195	0.8320839580209894	0.9010494752623688	
1.7104015976347146E12	2.6739130434782608	-6.271739130434782	4.184782608695652	3944.322344322344	128.0	128.0	-9.70980700371349	-8.701186025284056	-18.410993028997545	484.6175342342299	484.47516613902644	-1.8015267175572518	6.152671755725191	1.0687022900763359	0.15442278860569714	0.8305847076461769	0.9130434782608695	
1.7104015976542466E12	2.6739130434782608	-6.271739130434782	4.206521739130435	3945.7875457875457	128.0	128.0	-9.726611343218249	-8.731404987741112	-18.45801633095936	484.6209960724111	484.4903116810694	-2.3053435114503817	7.480916030534351	1.1603053435114503	0.17841079460269865	0.8395802098950524	0.9220389805097451	
1.7104015976737786E12	2.619565217391304	-6.282608695652174	4.217391304347826	3920.879120879121	128.0	128.0	-9.718677964052912	-8.722317662515362	-18.440995626568274	484.6207797075248	484.49096077572835	-1.618320610687023	7.358778625954198	1.0229007633587786	0.17091454272863568	0.8395802098950524	0.9190404797601199	
1.7104015976933103E12	2.619565217391304	-6.239130434782608	4.195652173913043	3945.7875457875457	128.0	128.0	-9.725024667385181	-8.752608746601194	-18.477633413986375	484.6179669640025	484.4996874928102	-1.114503816793893	7.404580152671755	1.129770992366412	0.17241379310344826	0.8275862068965517	0.9235382308845577	
1.7104015977128423E12	2.619565217391304	-6.228260869565217	4.228260869565217	3945.7875457875457	128.0	128.0	-9.727476802763558	-8.747415989329337	-18.474892792092895	484.6179669640025	484.5025002363325	-1.5725190839694656	7.465648854961832	1.1450381679389312	0.19040479760119938	0.8395802098950524	0.9190404797601199	
1.7104015977323743E12	2.608695652173913	-6.239130434782608	4.228260869565217	3932.6007326007325	128.0	128.0	-9.733390776323173	-8.768042775159213	-18.501433551482386	484.6235203294183	484.5122366562172	-2.3206106870229006	7.694656488549618	0.8396946564885496	0.1874062968515742	0.8305847076461769	0.9100449775112444	
1.7104015977519062E12	2.608695652173913	-6.25	4.195652173913043	3944.322344322344	128.0	128.0	-9.718966450568015	-8.73486682592235	-18.453833276490364	484.62200577521395	484.5077651152331	-2.4885496183206106	7.404580152671755	0.8091603053435115	0.18440779610194902	0.841079460269865	0.9100449775112444	
1.710401597771438E12	2.630434782608696	-6.25	4.217391304347826	3945.7875457875457	128.0	128.0	-9.710960949773902	-8.669740995137811	-18.380701944911713	484.6249627619938	484.5001202225829	-3.0381679389312977	7.099236641221374	0.9007633587786259	0.1874062968515742	0.8380809595202399	0.9025487256371814	
1.71040159779097E12	2.630434782608696	-6.271739130434782	4.271739130434782	3944.322344322344	128.0	128.0	-9.690334163944026	-8.560476727542486	-18.250810891486513	484.621356680555	484.48800378894856	-3.0381679389312977	7.1603053435114505	0.6106870229007634	0.17391304347826086	0.8365817091454273	0.9220389805097451	
1.710401597810502E12	2.652173913043478	-6.293478260869565	4.282608695652174	3942.8571428571427	128.0	128.0	-9.684708676899515	-8.702844822745899	-18.387553499645414	484.62236638335787	484.49362927599304	-2.16793893129771	7.236641221374046	0.6259541984732824	0.1874062968515742	0.841079460269865	0.9130434782608695	
1.7104015978300337E12	2.652173913043478	-6.282608695652174	4.25	3920.879120879121	128.0	128.0	-9.745290845071178	-8.841534714881746	-18.586825559952924	484.62258274824416	484.54122955098507	-1.9694656488549618	6.977099236641221	0.5343511450381679	0.17241379310344826	0.8275862068965517	0.9055472263868065	
1.7104015978495657E12	2.6739130434782608	-6.239130434782608	4.206521739130435	3945.7875457875457	128.0	128.0	-9.751853913289775	-8.86115179790876	-18.613005711198536	484.6219336535852	484.5394265102657	-1.9236641221374045	7.32824427480916	0.8091603053435115	0.18590704647676162	0.8395802098950524	0.9040479760119939	
1.7104015978690977E12	2.630434782608696	-6.217391304347826	4.163043478260869	3945.7875457875457	128.0	128.0	-9.746012061358936	-8.877162799496986	-18.623174860855922	484.62121243729746	484.55954844469414	-2.015267175572519	7.648854961832061	0.7175572519083969	0.1829085457271364	0.8440779610194902	0.9040479760119939	
1.7104015978886296E12	2.608695652173913	-6.206521739130435	4.163043478260869	3935.531135531135	128.0	128.0	-9.74644479113159	-8.980945823305348	-18.72739061443694	484.6246021538499	484.6604466033515	-2.4732824427480917	7.877862595419847	0.9465648854961831	0.17091454272863568	0.8365817091454273	0.9040479760119939	
1.7104015979081614E12	2.619565217391304	-6.239130434782608	4.228260869565217	3945.7875457875457	128.0	128.0	-9.39146213429715	-7.994249820023754	-17.385711954320904	484.6204190993809	484.0138762013765	-2.687022900763359	8.305343511450381	1.114503816793893	0.17241379310344826	0.841079460269865	0.9130434782608695	
1.7104015979276934E12	2.641304347826087	-6.260869565217391	4.304347826086956	3945.7875457875457	128.0	128.0	-9.520559849805815	-8.066948421829752	-17.587508271635567	484.62315972127436	483.78561124630113	-2.229007633587786	7.6183206106870225	1.0076335877862594	0.17391304347826086	0.8245877061469266	0.9190404797601199	
1.7104015979472253E12	2.619565217391304	-6.206521739130435	3.9782608695652173	3944.322344322344	128.0	128.0	-9.715504612386777	-8.928585520814124	-18.6440901332009	484.6222221401003	484.45021205547005	-3.4351145038167936	6.763358778625954	0.549618320610687	0.17391304347826086	0.8545727136431783	0.9040479760119939	
1.710401597966757E12	2.608695652173913	-6.326086956521739	4.456521739130435	3945.7875457875457	128.0	128.0	-9.706777895304906	-8.832880119428651	-18.539658014733558	484.62416942407725	484.59034438018136	-4.641221374045801	6.793893129770992	0.42748091603053434	0.1874062968515742	0.8305847076461769	0.9025487256371814	
1.710401597986289E12	2.684782608695652	-6.239130434782608	4.271739130434782	3932.6007326007325	128.0	128.0	-9.717235531477396	-8.850261431963617	-18.567496963441013	484.62842460017504	484.60498507082286	-0.3511450381679389	5.862595419847328	0.7633587786259541	0.1829085457271364	0.8365817091454273	0.9085457271364318	
1.710401598005821E12	2.608695652173913	-6.1521739130434785	4.271739130434782	3919.4139194139193	128.0	128.0	-9.697041475420175	-8.855309945977922	-18.552351421398097	484.6273427757434	484.6412622500971	-2.0	8.381679389312977	0.4580152671755725	0.17241379310344826	0.8350824587706147	0.9310344827586207	
1.7104015980253528E12	2.5543478260869565	-6.271739130434782	4.228260869565217	3947.252747252747	128.0	128.0	-9.693146907466282	-8.8556705541218	-18.548817461588083	484.62828035691746	484.6475368318006	-5.221374045801526	6.259541984732824	0.6564885496183206	0.18440779610194902	0.8350824587706147	0.9130434782608695	
1.7104015980448848E12	2.6630434782608696	-6.217391304347826	4.25	3935.531135531135	128.0	128.0	-9.689612947656268	-8.823143699543916	-18.512756647200185	484.6232318429032	484.6720581855844	-2.8091603053435112	3.9083969465648853	0.21374045801526717	0.17841079460269865	0.8440779610194902	0.9220389805097451	
1.7104015980644167E12	2.6956521739130435	-6.25	4.271739130434782	3945.7875457875457	128.0	128.0	-9.683626852467878	-8.770927640310244	-18.454554492778122	484.6245300322211	484.6701830232362	-2.8702290076335877	5.511450381679389	0.015267175572519083	0.17841079460269865	0.8440779610194902	0.896551724137931	
1.7104015980839487E12	2.6739130434782608	-6.293478260869565	4.33695652173913	3945.7875457875457	128.0	128.0	-9.680958352203174	-8.750805705881799	-18.431764058084973	484.6222221401003	484.6937667958459	-2.198473282442748	6.244274809160305	0.15267175572519084	0.18440779610194902	0.8305847076461769	0.9205397301349325	
1.7104015981034805E12	2.630434782608696	-6.239130434782608	4.282608695652174	3944.322344322344	128.0	128.0	-9.651244241147548	-8.739771096679103	-18.39101533782665	484.6209960724111	484.7508871258363	-2.1526717557251906	6.137404580152672	0.6717557251908397	0.19040479760119938	0.8215892053973013	0.9085457271364318	
1.7104015981230125E12	2.630434782608696	-6.206521739130435	4.260869565217392	3944.322344322344	128.0	128.0	-9.679588041256434	-8.705585444639379	-18.385173485895812	484.61731786934354	484.7765624256805	-2.610687022900763	6.0	0.6106870229007634	0.17691154422788605	0.8350824587706147	0.9175412293853074	
1.7104015981425444E12	2.619565217391304	-6.206521739130435	4.239130434782608	3920.879120879121	128.0	128.0	-9.666245539932913	-8.686184726498691	-18.352430266431604	484.6157311935105	484.78759703488316	-3.114503816793893	6.748091603053435	0.9312977099236641	0.1874062968515742	0.8380809595202399	0.9130434782608695	
1.7104015981620762E12	2.641304347826087	-6.25	4.260869565217392	3944.322344322344	128.0	128.0	-9.651316362776324	-8.67745800941682	-18.328774372193145	484.617173626086	484.7544210856463	-3.3435114503816794	6.5038167938931295	0.9770992366412213	0.17991004497751123	0.8230884557721139	0.9100449775112444	
1.7104015981816082E12	2.6739130434782608	-6.260869565217391	4.3478260869565215	3942.8571428571427	128.0	128.0	-9.691704474890766	-8.705152714866724	-18.39685718975749	484.62229426172905	484.6758085102807	-3.7404580152671754	6.6106870229007635	0.7175572519083969	0.17991004497751123	0.8305847076461769	0.9235382308845577	
1.7104015982011401E12	2.6630434782608696	-6.3478260869565215	4.228260869565217	3935.531135531135	128.0	128.0	-9.72538527552906	-8.78794834470133	-18.51333362023039	484.619409396578	484.64674349388406	-4.122137404580153	6.015267175572519	0.42748091603053434	0.17691154422788605	0.8200899550224887	0.9280359820089955	
1.710401598220672E12	2.5978260869565215	-6.33695652173913	4.434782608695652	3945.7875457875457	128.0	128.0	-9.736419884731756	-8.810017563106726	-18.546437447838482	484.62243850498663	484.63866587146117	-3.7709923664122136	5.770992366412213	0.5038167938931297	0.19040479760119938	0.8365817091454273	0.9115442278860569	
1.7104015982402039E12	2.608695652173913	-6.239130434782608	4.195652173913043	3945.7875457875457	128.0	128.0	-9.712908233750849	-8.815787293408786	-18.528695527159634	484.6222221401003	484.64998896717896	-5.3893129770992365	3.114503816793893	0.5801526717557252	0.18440779610194902	0.8380809595202399	0.8995502248875562	
1.7104015982597358E12	2.641304347826087	-6.206521739130435	4.304347826086956	3944.322344322344	128.0	128.0	-9.717596139621275	-8.816075779923892	-18.533671919545167	484.62178941032766	484.65922053566226	-8.030534351145038	5.114503816793893	0.6564885496183206	0.17841079460269865	0.8290854572713643	0.9190404797601199	
1.7104015982792678E12	2.684782608695652	-6.282608695652174	4.293478260869565	3945.7875457875457	128.0	128.0	-9.727837410907437	-8.789102290761743	-18.51693970166918	484.61378390953354	484.685040078764	-6.717557251908397	4.961832061068702	0.38167938931297707	0.1874062968515742	0.8530734632683658	0.9175412293853074	
1.7104015982987996E12	2.717391304347826	-6.271739130434782	4.282608695652174	3922.344322344322	128.0	128.0	-9.706417287161027	-8.793645953374618	-18.500063240535646	484.609456611807	484.6805685377799	-6.366412213740458	5.450381679389313	0.183206106870229	0.1829085457271364	0.8470764617691154	0.9145427286356821	
1.7104015983183315E12	2.6956521739130435	-6.3478260869565215	4.326086956521739	3945.7875457875457	128.0	128.0	-9.712908233750849	-8.808719373788758	-18.521627607539607	484.6085911522617	484.69535347167897	-5.786259541984733	6.305343511450381	-0.04580152671755725	0.17091454272863568	0.8395802098950524	0.9010494752623688	
1.7104015983378635E12	2.7065217391304346	-6.282608695652174	4.33695652173913	3945.7875457875457	128.0	128.0	-9.717091288219844	-8.806699968183036	-18.52379125640288	484.6090960036631	484.69261284978546	-3.1755725190839694	6.213740458015267	-0.1984732824427481	0.19040479760119938	0.8395802098950524	0.9010494752623688	
1.7104015983573953E12	2.717391304347826	-6.25	4.228260869565217	3935.531135531135	128.0	128.0	-9.717596139621275	-8.803454494888125	-18.5210506345094	484.6085911522617	484.692107998384	-2.2748091603053435	6.3206106870229	0.15267175572519084	0.17991004497751123	0.8380809595202399	0.9130434782608695	
1.7104015983769272E12	2.7065217391304346	-6.260869565217391	4.217391304347826	3945.7875457875457	128.0	128.0	-9.723942842953544	-8.795016264321358	-18.518959107274902	484.6053456789668	484.69888743148897	-2.5801526717557253	5.450381679389313	-0.2900763358778626	0.1664167916041979	0.8440779610194902	0.9190404797601199	
1.7104015983964592E12	2.7065217391304346	-6.282608695652174	4.217391304347826	3945.7875457875457	128.0	128.0	-9.717596139621275	-8.79790112947239	-18.515497269093665	484.6064275033984	484.7057389862227	-2.9618320610687023	5.1603053435114505	-0.24427480916030533	0.17391304347826086	0.8440779610194902	0.9115442278860569	
1.7104015984159912E12	2.760869565217391	-6.271739130434782	4.228260869565217	3944.322344322344	128.0	128.0	-9.715216125871674	-8.793862318260945	-18.50907844413262	484.6078699359739	484.72723123159784	-3.541984732824427	5.83206106870229	-0.3511450381679389	0.17691154422788605	0.8380809595202399	0.9130434782608695	
1.710401598435523E12	2.6956521739130435	-6.271739130434782	4.293478260869565	3945.7875457875457	128.0	128.0	-9.722284045491701	-8.79292473708686	-18.51520878257856	484.6087353955192	484.7270869883403	-4.091603053435114	6.580152671755725	-0.4427480916030534	0.17991004497751123	0.8305847076461769	0.9175412293853074	
1.710401598455055E12	2.684782608695652	-6.326086956521739	4.326086956521739	3936.9963369963366	128.0	128.0	-9.701873624548153	-8.695416294981992	-18.397289919530145	484.6076535710876	484.7378331110279	-3.2519083969465647	5.9541984732824424	-0.7175572519083969	0.17241379310344826	0.8350824587706147	0.9055472263868065	
1.710401598474587E12	2.684782608695652	-6.304347826086956	4.260869565217392	3947.252747252747	128.0	128.0	-9.683482609210326	-8.616731597987606	-18.300214207197932	484.60743720620127	484.73134216443805	-3.0534351145038165	5.923664122137405	-0.7786259541984732	0.1649175412293853	0.8350824587706147	0.9055472263868065	
1.7104015984941187E12	2.6739130434782608	-6.25	4.239130434782608	3945.7875457875457	128.0	128.0	-9.651604849291427	-8.59055144674199	-18.242156296033418	484.6047687059366	484.7440355711026	-3.297709923664122	5.862595419847328	-0.6106870229007634	0.18590704647676162	0.8290854572713643	0.9220389805097451	
1.7104015985136506E12	2.6630434782608696	-6.228260869565217	4.217391304347826	3934.065934065934	128.0	128.0	-9.635882334218303	-8.706667269071017	-18.34254960328932	484.6060668952545	484.75773868057	-3.618320610687023	5.083969465648854	-0.6106870229007634	0.19040479760119938	0.8290854572713643	0.9085457271364318	
1.7104015985331826E12	2.717391304347826	-6.206521739130435	4.293478260869565	3945.7875457875457	128.0	128.0	-9.690117799057699	-8.780014965535994	-18.470132764593693	484.60628326014086	484.7885346160573	-4.33587786259542	5.022900763358779	-0.22900763358778625	0.16941529235382308	0.8350824587706147	0.9100449775112444	
1.7104015985527146E12	2.717391304347826	-6.260869565217391	4.228260869565217	3945.7875457875457	128.0	128.0	-9.709302152312059	-8.788669560989089	-18.497971713301148	484.60750932783003	484.82257602483946	-4.580152671755725	5.465648854961832	-0.47328244274809156	0.1649175412293853	0.8455772113943029	0.9175412293853074	
1.7104015985722463E12	2.6956521739130435	-6.260869565217391	4.184782608695652	3944.322344322344	128.0	128.0	-9.695887529359762	-8.781313154853958	-18.47720068421372	484.60837478737534	484.8342597287011	-5.068702290076335	5.786259541984733	-0.366412213740458	0.18590704647676162	0.8395802098950524	0.9085457271364318	
1.7104015985917783E12	2.717391304347826	-6.25	4.173913043478261	3947.252747252747	128.0	128.0	-9.682472906407465	-8.8532905403722	-18.535763446779665	484.6072929629437	485.03894091116683	-5.175572519083969	5.786259541984733	-0.015267175572519083	0.17091454272863568	0.8395802098950524	0.9010494752623688	
1.7104015986113103E12	2.717391304347826	-6.239130434782608	4.108695652173913	3920.879120879121	128.0	128.0	-9.384610579563448	-8.065073259481581	-17.44968383904503	484.60173959752797	484.4437211088802	-5.969465648854961	5.816793893129771	0.0	0.17841079460269865	0.8320839580209894	0.9085457271364318	
1.710401598630842E12	2.7391304347826084	-6.206521739130435	4.206521739130435	3944.322344322344	128.0	128.0	-9.754233927039376	-8.567039795761087	-18.321273722800463	484.60924024692065	484.43045072918545	-6.198473282442748	3.9847328244274807	-0.10687022900763359	0.1649175412293853	0.8350824587706147	0.9130434782608695	
1.710401598650374E12	2.7065217391304346	-6.25	3.967391304347826	3945.7875457875457	128.0	128.0	-9.623982265470298	-8.681568942257043	-18.30555120772734	484.60274930033086	484.85856471759854	-8.106870229007633	4.2748091603053435	-0.32061068702290074	0.17241379310344826	0.841079460269865	0.9055472263868065	
1.710401598669906E12	2.75	-6.293478260869565	4.293478260869565	3932.6007326007325	128.0	128.0	-9.653480011639598	-8.6367092891585	-18.290189300798097	484.6034705166186	484.9091219793704	-8.687022900763358	3.114503816793893	-0.5343511450381679	0.17091454272863568	0.8395802098950524	0.9190404797601199	
1.7104015986894377E12	2.75	-6.282608695652174	4.119565217391305	3945.7875457875457	128.0	128.0	-9.658600647282679	-8.643055992490769	-18.301656639773448	484.60397536802003	484.9632132009522	-4.65648854961832	6.061068702290076	-0.16793893129770993	0.15892053973013492	0.8320839580209894	0.9115442278860569	
1.7104015987089697E12	2.75	-6.293478260869565	4.293478260869565	3932.6007326007325	128.0	128.0	-9.639055685884438	-8.620265557797618	-18.259321243682056	484.6031099084747	484.9743920534125	-6.412213740458015	7.587786259541985	0.16793893129770993	0.19040479760119938	0.8365817091454273	0.896551724137931	
1.7104015987285017E12	2.684782608695652	-6.304347826086956	4.076086956521739	3945.7875457875457	128.0	128.0	-9.627948955052966	-8.595167230983643	-18.22311618603661	484.60044140821003	484.9984806774236	-10.946564885496183	5.114503816793893	0.183206106870229	0.1649175412293853	0.8275862068965517	0.9175412293853074	
1.7104015987480337E12	2.8152173913043477	-6.33695652173913	4.217391304347826	3945.7875457875457	128.0	128.0	-9.620808913804163	-8.552759713263479	-18.17356862706764	484.60101838124024	485.008000732422	-8.198473282442748	4.015267175572519	0.15267175572519084	0.17391304347826086	0.8365817091454273	0.9145427286356821	
1.7104015987675654E12	2.782608695652174	-6.271739130434782	4.076086956521739	3920.879120879121	128.0	128.0	-9.604148817556956	-8.515112223042516	-18.119261040599472	484.60202808404307	485.0659865219577	-5.679389312977099	5.175572519083969	0.04580152671755725	0.17391304347826086	0.8245877061469266	0.9010494752623688	
1.7104015987870974E12	2.75	-6.304347826086956	4.08695652173913	3945.7875457875457	128.0	128.0	-9.599533033315305	-8.47530108395828	-18.074834117273586	484.60000867843735	485.0847381454394	-5.694656488549618	5.908396946564885	0.13740458015267176	0.16941529235382308	0.8350824587706147	0.9055472263868065	
1.7104015988066294E12	2.760869565217391	-6.217391304347826	4.0	3945.7875457875457	128.0	128.0	-9.581718991007685	-8.442846351009171	-18.024565342016857	484.60361475987617	485.13212205554515	-4.763358778625954	4.65648854961832	0.4580152671755725	0.17841079460269865	0.8245877061469266	0.9190404797601199	
1.7104015988261611E12	2.760869565217391	-6.195652173913043	4.010869565217392	3932.6007326007325	128.0	128.0	-9.581718991007685	-8.434408120442404	-18.01612711145009	484.6028935435884	485.15916766633603	-4.748091603053435	5.49618320610687	0.3969465648854962	0.1874062968515742	0.841079460269865	0.9055472263868065	
1.710401598845693E12	2.75	-6.239130434782608	4.043478260869565	3947.252747252747	128.0	128.0	-9.578978369114205	-8.404766131015554	-17.98374450012976	484.60058565146755	485.16161980171444	-5.679389312977099	6.076335877862595	0.8702290076335878	0.17391304347826086	0.8440779610194902	0.9145427286356821	
1.710401598865225E12	2.7717391304347827	-6.260869565217391	4.021739130434782	3945.7875457875457	128.0	128.0	-9.579627463773187	-8.352477950153107	-17.932105413926294	484.59972019192224	485.12231351403165	-5.450381679389313	5.923664122137405	0.8854961832061068	0.17841079460269865	0.8320839580209894	0.9145427286356821	
1.710401598884757E12	2.782608695652174	-6.282608695652174	4.076086956521739	3945.7875457875457	128.0	128.0	-9.619005873084769	-8.398996400713491	-18.01800227379826	484.6009462596114	485.06605864358653	-5.358778625954198	6.229007633587786	0.8702290076335878	0.18590704647676162	0.8395802098950524	0.9220389805097451	
1.7104015989042888E12	2.7717391304347827	-6.33695652173913	3.8478260869565215	3945.7875457875457	128.0	128.0	-9.664298255955966	-8.4499142706292	-18.114212526585167	484.59885473237694	485.01708805764775	-4.778625954198473	6.152671755725191	0.8244274809160305	0.19490254872563717	0.8200899550224887	0.9055472263868065	
1.7104015989238208E12	2.8043478260869565	-6.282608695652174	4.173913043478261	3920.879120879121	128.0	128.0	-9.651099997889997	-8.481142935889117	-18.132242933779114	484.5992153405208	485.01853049022327	-3.0076335877862594	6.412213740458015	0.9007633587786259	0.17991004497751123	0.841079460269865	0.9205397301349325	
1.7104015989433528E12	2.7282608695652173	-6.260869565217391	3.9565217391304346	3945.7875457875457	128.0	128.0	-9.668553432053738	-8.460588271688017	-18.129141703741755	484.5989989756345	485.03324330249353	-4.137404580152672	6.122137404580153	0.9007633587786259	0.17841079460269865	0.8365817091454273	0.9190404797601199	
1.7104015989628845E12	2.75	-6.228260869565217	4.0978260869565215	3945.7875457875457	128.0	128.0	-9.66098066103228	-8.445659094531429	-18.10663975556371	484.5992153405208	485.0398784923409	-3.8931297709923665	6.015267175572519	0.9312977099236641	0.17241379310344826	0.8305847076461769	0.9100449775112444	
1.7104015989824165E12	2.782608695652174	-6.271739130434782	3.967391304347826	3931.135531135531	128.0	128.0	-9.651965457435306	-8.458568866082295	-18.1105343235176	484.59633047536977	485.0558894939291	-5.236641221374046	6.351145038167939	0.8244274809160305	0.16941529235382308	0.841079460269865	0.9055472263868065	
1.7104015990019485E12	2.793478260869565	-6.293478260869565	4.054347826086956	3944.322344322344	128.0	128.0	-9.652326065579185	-8.462391312407412	-18.114717377986597	484.5971959349151	485.0791847800237	-3.66412213740458	6.946564885496183	1.0229007633587786	0.18590704647676162	0.8320839580209894	0.9115442278860569	
1.7104015990214802E12	2.7717391304347827	-6.315217391304348	4.032608695652174	3944.322344322344	128.0	128.0	-9.67742439239316	-8.429864457829531	-18.10728885022269	484.5955371374532	485.0863969429013	-3.66412213740458	7.251908396946565	0.9618320610687022	0.17391304347826086	0.8320839580209894	0.9250374812593702	
1.7104015990410122E12	2.760869565217391	-6.239130434782608	4.032608695652174	3944.322344322344	128.0	128.0	-9.655427295616544	-8.47133439437561	-18.126761689992154	484.5917146911281	485.0907242406278	-2.3206106870229006	7.068702290076335	0.916030534351145	0.191904047976012	0.8455772113943029	0.9175412293853074	
1.7104015990605442E12	2.760869565217391	-6.239130434782608	4.010869565217392	3945.7875457875457	128.0	128.0	-9.682689271293793	-8.446885162220617	-18.12957443351441	484.5923637857871	485.0874787673329	-2.854961832061069	7.190839694656488	1.282442748091603	0.17841079460269865	0.8395802098950524	0.9085457271364318	
1.7104015990800762E12	2.782608695652174	-6.282608695652174	4.010869565217392	3941.391941391941	128.0	128.0	-9.672015270234976	-8.463256771952722	-18.135272042187697	484.5977729079453	485.08408905078045	-3.618320610687023	7.343511450381679	0.9770992366412213	0.17091454272863568	0.8245877061469266	0.9190404797601199	
1.710401599099608E12	2.75	-6.260869565217391	4.0978260869565215	3944.322344322344	128.0	128.0	-9.670284351144357	-8.423661997754813	-18.09394634889917	484.5959698672259	485.08625269964375	-4.137404580152672	6.870229007633587	1.0229007633587786	0.17391304347826086	0.8320839580209894	0.9115442278860569	
1.71040159911914E12	2.75	-6.304347826086956	4.054347826086956	3945.7875457875457	128.0	128.0	-9.668192823909859	-8.354425234130051	-18.02261805803991	484.5968353267712	485.0693762385102	-3.847328244274809	6.793893129770992	1.0229007633587786	0.19040479760119938	0.8245877061469266	0.896551724137931	
1.7104015991386719E12	2.760869565217391	-6.304347826086956	4.065217391304348	3929.6703296703295	128.0	128.0	-9.641507821262817	-8.213932301274813	-17.85544012253763	484.5977007863165	485.0452154928703	-3.7709923664122136	6.65648854961832	0.7022900763358778	0.17391304347826086	0.8215892053973013	0.9145427286356821	
1.7104015991582036E12	2.793478260869565	-6.304347826086956	4.054347826086956	3945.7875457875457	128.0	128.0	-9.609990669487795	-8.349737328259627	-17.95972799774742	484.59943170540714	485.0535816018083	-3.5572519083969465	7.068702290076335	0.6717557251908397	0.19790104947526235	0.8215892053973013	0.896551724137931	
1.7104015991777356E12	2.7717391304347827	-6.271739130434782	4.065217391304348	3945.7875457875457	128.0	128.0	-9.65773518773737	-8.489941774599764	-18.147676962337133	484.5999365568086	485.0991624711946	-2.916030534351145	6.717557251908397	0.2900763358778626	0.1934032983508246	0.8185907046476761	0.9190404797601199	
1.7104015991972676E12	2.760869565217391	-6.282608695652174	3.9782608695652173	3944.322344322344	128.0	128.0	-9.686800204134013	-8.506818235733299	-18.19361843986731	484.6034705166186	485.10255218774705	-3.114503816793893	6.977099236641221	0.6106870229007634	0.19040479760119938	0.8290854572713643	0.9040479760119939	
1.7104015992167996E12	2.75	-6.282608695652174	3.9782608695652173	3945.7875457875457	128.0	128.0	-9.68066986568807	-8.499029099825513	-18.179698965513584	484.6031820301035	485.1168322702447	-3.1908396946564883	7.175572519083969	0.38167938931297707	0.17241379310344826	0.8350824587706147	0.9025487256371814	
1.7104015992363313E12	2.7282608695652173	-6.271739130434782	3.9891304347826084	3922.344322344322	128.0	128.0	-9.677568635650712	-8.557808227277782	-18.235376862928494	484.6026050570733	485.190396331596	-4.1679389312977095	6.519083969465648	0.24427480916030533	0.16941529235382308	0.8530734632683658	0.9025487256371814	
1.7104015992558633E12	2.7717391304347827	-6.260869565217391	4.0	3945.7875457875457	128.0	128.0	-9.391029404524495	-7.9476592478345935	-17.33868865235909	484.60181171915673	484.8530113521828	-4.396946564885496	6.793893129770992	0.2748091603053435	0.17391304347826086	0.8320839580209894	0.9190404797601199	
1.7104015992753953E12	2.782608695652174	-6.228260869565217	3.9891304347826084	3944.322344322344	128.0	128.0	-9.425864151223202	-7.329216281082186	-16.755080432305387	484.60527355733797	484.30394939231275	-4.870229007633587	5.755725190839694	0.7022900763358778	0.1829085457271364	0.8290854572713643	0.9190404797601199	
1.710401599294927E12	2.75	-6.271739130434782	4.032608695652174	3929.6703296703295	128.0	128.0	-9.721130099431289	-8.571583458373961	-18.29271355780525	484.6053456789668	484.93443667107067	-6.076335877862595	5.251908396946565	0.24427480916030533	0.17691154422788605	0.8305847076461769	0.9175412293853074	
1.710401599314459E12	2.8043478260869565	-6.271739130434782	3.967391304347826	3945.7875457875457	128.0	128.0	-9.657013971449611	-8.414791037415391	-18.071805008865002	484.61068267949616	485.1426518133464	-8.564885496183205	4.244274809160305	0.5343511450381679	0.1649175412293853	0.8230884557721139	0.9385307346326837	
1.710401599333991E12	2.8260869565217392	-6.380434782608695	3.9565217391304346	3944.322344322344	128.0	128.0	-9.660187323115746	-8.426546862905845	-18.08673418602159	484.6097450983221	485.1661634643273	-4.67175572519084	5.435114503816794	0.061068702290076333	0.17991004497751123	0.8350824587706147	0.9055472263868065	
1.7104015993535227E12	2.75	-6.130434782608695	4.010869565217392	3944.322344322344	128.0	128.0	-9.632636860923393	-8.433759025783425	-18.066395886706818	484.6111875308976	485.1838332633774	-1.648854961832061	9.66412213740458	0.183206106870229	0.1664167916041979	0.8185907046476761	0.9115442278860569	
1.7104015993730547E12	2.75	-6.239130434782608	3.8369565217391304	3945.7875457875457	128.0	128.0	-9.62600167107602	-8.42236380843685	-18.04836547951287	484.61111540926885	485.19162239928517	-8.51908396946565	7.603053435114504	0.9618320610687022	0.17841079460269865	0.8320839580209894	0.9115442278860569	
1.7104015993925867E12	2.8043478260869565	-6.3478260869565215	4.021739130434782	3942.8571428571427	128.0	128.0	-9.619727089372526	-8.391279386434482	-18.011006475807008	484.60967297669333	485.2128261581452	-8.549618320610687	6.152671755725191	0.2595419847328244	0.18440779610194902	0.8455772113943029	0.9175412293853074	
1.7104015994121187E12	2.793478260869565	-6.358695652173913	3.9130434782608696	3944.322344322344	128.0	128.0	-9.60681731782166	-8.358103437197618	-17.96492075501928	484.6082305441178	485.2116722120848	-7.511450381679389	6.854961832061068	-0.1984732824427481	0.18590704647676162	0.8215892053973013	0.9145427286356821	
1.7104015994316504E12	2.782608695652174	-6.358695652173913	3.9130434782608696	3944.322344322344	128.0	128.0	-9.599533033315305	-8.338342110913052	-17.937875144228357	484.6085911522617	485.2216249968559	-4.824427480916031	6.717557251908397	0.366412213740458	0.17391304347826086	0.8365817091454273	0.9115442278860569	
1.7104015994511824E12	2.8043478260869565	-6.271739130434782	3.8152173913043477	3928.205128205128	128.0	128.0	-9.595494222103861	-8.31540743296235	-17.910901655066212	484.608158422489	485.27953866476287	-4.473282442748092	6.2748091603053435	0.47328244274809156	0.17991004497751123	0.8230884557721139	0.9130434782608695	
1.7104015994707144E12	2.793478260869565	-6.173913043478261	3.782608695652174	3945.7875457875457	128.0	128.0	-9.573136517183366	-8.307690418683341	-17.880826935866708	484.6052014357092	485.2957660312374	-3.9541984732824424	6.595419847328244	0.5954198473282443	0.1664167916041979	0.8320839580209894	0.9145427286356821	
1.710401599490246E12	2.782608695652174	-6.228260869565217	3.8478260869565215	3944.322344322344	128.0	128.0	-9.585829923847905	-8.259945900433769	-17.845775824281674	484.60390324639127	485.3038436536603	-4.091603053435114	7.1603053435114505	0.5190839694656488	0.1829085457271364	0.8290854572713643	0.9145427286356821	
1.710401599509778E12	2.782608695652174	-6.293478260869565	3.8804347826086953	3942.8571428571427	128.0	128.0	-9.584531734529941	-8.253527075472723	-17.838058810002664	484.60274930033086	485.2799713945355	-4.305343511450381	7.129770992366412	0.7786259541984732	0.17091454272863568	0.8185907046476761	0.9295352323838081	
1.71040159952931E12	2.8152173913043477	-6.304347826086956	3.891304347826087	3945.7875457875457	128.0	128.0	-9.625064089901935	-8.302641904669036	-17.92770599457097	484.60325415173224	485.2111673606834	-4.045801526717557	6.900763358778626	1.0076335877862594	0.1829085457271364	0.8440779610194902	0.9145427286356821	
1.710401599548842E12	2.782608695652174	-6.33695652173913	3.891304347826087	3922.344322344322	128.0	128.0	-9.663360674781881	-8.355507058561688	-18.01886773334357	484.60296566521714	485.16544224803954	-3.0381679389312977	7.1603053435114505	0.8396946564885496	0.1649175412293853	0.8305847076461769	0.9175412293853074	
1.7104015995683738E12	2.793478260869565	-6.293478260869565	3.8369565217391304	3944.322344322344	128.0	128.0	-9.678866824968676	-8.392433332494896	-18.071300157463572	484.6033983949898	485.149214881565	-2.4885496183206106	6.641221374045801	1.3435114503816794	0.17391304347826086	0.8290854572713643	0.9190404797601199	
1.7104015995879058E12	2.8369565217391304	-6.206521739130435	3.8260869565217392	3945.7875457875457	128.0	128.0	-9.67107768906089	-8.402963090296161	-18.074040779357052	484.60325415173224	485.14726759758804	0.13740458015267176	7.145038167938931	1.1603053435114503	0.17241379310344826	0.8380809595202399	0.9280359820089955	
1.7104015996074377E12	2.7065217391304346	-6.260869565217391	3.7391304347826084	3926.7399267399264	128.0	128.0	-9.676847419362954	-8.390269683631622	-18.067117102994576	484.6058505303682	485.1590234230785	-3.480916030534351	7.679389312977099	1.5725190839694656	0.17691154422788605	0.815592203898051	0.9205397301349325	
1.7104015996269695E12	2.8043478260869565	-6.271739130434782	3.9891304347826084	3945.7875457875457	128.0	128.0	-9.67107768906089	-8.410463739688844	-18.081541428749734	484.60570628711065	485.1739526002351	-3.5725190839694654	6.458015267175572	1.0381679389312977	0.17691154422788605	0.8350824587706147	0.9205397301349325	
1.7104015996465015E12	2.8152173913043477	-6.282608695652174	3.9130434782608696	3945.7875457875457	128.0	128.0	-9.664658864099845	-8.396544265335116	-18.06120312943496	484.60837478737534	485.1662355859561	-3.618320610687023	7.49618320610687	1.465648854961832	0.1829085457271364	0.8215892053973013	0.9085457271364318	
1.7104015996660334E12	2.760869565217391	-6.326086956521739	3.9456521739130435	3945.7875457875457	128.0	128.0	-9.665307958758827	-8.394452738100618	-18.059760696859446	484.6115481390415	485.1763326139847	-3.847328244274809	8.229007633587786	1.129770992366412	0.17991004497751123	0.8380809595202399	0.9100449775112444	
1.7104015996855652E12	2.7717391304347827	-6.326086956521739	3.9239130434782608	3945.7875457875457	128.0	128.0	-9.669779499742926	-8.401160049576767	-18.070939549319693	484.6120529904429	485.1740247218639	-2.3053435114503817	8.259541984732824	1.4351145038167938	0.1874062968515742	0.8350824587706147	0.9130434782608695	
1.7104015997050972E12	2.782608695652174	-6.25	3.9456521739130435	3922.344322344322	128.0	128.0	-9.664009769440863	-8.418036510710301	-18.082046280151165	484.60895176040555	485.16205253148706	-1.3435114503816794	8.0	1.5572519083969465	0.17691154422788605	0.8350824587706147	0.9175412293853074	
1.7104015997246292E12	2.7717391304347827	-6.239130434782608	3.9130434782608696	3919.4139194139193	128.0	128.0	-9.674900135386007	-8.370147749203177	-18.045047884589184	484.60981721995086	485.16933681599346	-1.1450381679389312	7.9541984732824424	1.6335877862595418	0.18440779610194902	0.8305847076461769	0.9205397301349325	
1.7104015997441611E12	2.8152173913043477	-6.228260869565217	3.934782608695652	3944.322344322344	128.0	128.0	-9.663432796410657	-8.31692198716664	-17.980354783577297	484.60570628711065	485.1429402998615	-1.0076335877862594	8.610687022900763	1.9541984732824427	0.17991004497751123	0.8230884557721139	0.9175412293853074	
1.7104015997636929E12	2.7717391304347827	-6.228260869565217	3.9782608695652173	3925.274725274725	128.0	128.0	-9.639416294028317	-8.232828168014072	-17.87224446204239	484.609456611807	485.1017588498305	-0.549618320610687	8.870229007633588	2.2900763358778624	0.17391304347826086	0.8245877061469266	0.8935532233883058	
1.7104015997832249E12	2.7282608695652173	-6.25	3.9456521739130435	3947.252747252747	128.0	128.0	-9.641363578005265	-8.346708219851042	-17.988071797856307	484.61097116601127	485.10796130990525	-0.7786259541984732	7.9541984732824424	1.9389312977099236	0.1934032983508246	0.8395802098950524	0.9115442278860569	
1.7104015998027568E12	2.7065217391304346	-6.282608695652174	3.9891304347826084	3945.7875457875457	128.0	128.0	-9.691343866746887	-8.485181747100562	-18.17652561384745	484.6127020851019	485.1365935965292	-1.7404580152671756	6.763358778625954	1.7709923664122136	0.18440779610194902	0.841079460269865	0.9055472263868065	
1.7104015998222886E12	2.782608695652174	-6.33695652173913	4.0	3944.322344322344	128.0	128.0	-9.715360369129225	-8.488571463653024	-18.20393183278225	484.61255784184436	485.1537585441779	-1.66412213740458	5.877862595419847	1.5572519083969465	0.1934032983508246	0.8245877061469266	0.9250374812593702	
1.7104015998418206E12	2.7717391304347827	-6.33695652173913	4.010869565217392	3945.7875457875457	128.0	128.0	-9.69797905659426	-8.490374504372419	-18.18835356096668	484.6114760174127	485.1536864225491	-1.5725190839694656	6.091603053435114	1.6946564885496183	0.17841079460269865	0.8440779610194902	0.9040479760119939	
1.7104015998613525E12	2.7391304347826084	-6.260869565217391	4.010869565217392	3922.344322344322	128.0	128.0	-9.713268841894728	-8.586440513901774	-18.2997093557965	484.61277420673065	485.2527094188583	-0.6564885496183206	5.83206106870229	1.7862595419847327	0.1634182908545727	0.8290854572713643	0.9115442278860569	
1.7104015998808845E12	2.7282608695652173	-6.228260869565217	3.967391304347826	3945.7875457875457	128.0	128.0	-9.469425615003779	-8.161355633897262	-17.63078124890104	484.61255784184436	485.0060534484451	-1.2213740458015268	5.862595419847328	1.9389312977099236	0.16941529235382308	0.8230884557721139	0.8995502248875562	
1.7104015999004163E12	2.7717391304347827	-6.184782608695652	3.9782608695652173	3945.7875457875457	128.0	128.0	-9.61316402115393	-7.87899945724004	-17.49216347839397	484.6163081665407	484.49961537118145	-1.984732824427481	5.633587786259541	2.2442748091603053	0.17241379310344826	0.8200899550224887	0.9175412293853074	
1.7104015999199482E12	2.7391304347826084	-6.260869565217391	3.7391304347826084	3925.274725274725	128.0	128.0	-9.658456404025127	-8.540138428227714	-18.19859483225284	484.61493785559395	485.0654095489275	-5.190839694656488	6.183206106870228	2.0	0.15742128935532235	0.8350824587706147	0.9175412293853074	
1.7104015999394802E12	2.8043478260869565	-6.369565217391304	4.217391304347826	3947.252747252747	128.0	128.0	-9.677785000537039	-8.46772831293682	-18.14551331347386	484.6134233013897	485.1433730296342	-7.068702290076335	4.396946564885496	1.7404580152671756	0.20239880059970014	0.8230884557721139	0.9205397301349325	
1.710401599959012E12	2.8043478260869565	-6.33695652173913	4.0	3945.7875457875457	128.0	128.0	-9.679227433112555	-8.491167842288952	-18.170395275401507	484.61436088256374	485.1599610042526	-2.946564885496183	5.847328244274809	1.3740458015267174	0.19790104947526235	0.8320839580209894	0.9145427286356821	
1.710401599978544E12	2.6739130434782608	-6.195652173913043	3.9782608695652173	3944.322344322344	128.0	128.0	-9.658528525653903	-8.496937572591015	-18.15546609824492	484.6169572611997	485.1767653437573	-1.6793893129770991	9.770992366412214	1.3740458015267174	0.17691154422788605	0.848575712143928	0.9340329835082458	
1.710401599998076E12	2.6739130434782608	-6.315217391304348	3.934782608695652	3945.7875457875457	128.0	128.0	-9.666750391334343	-8.49325936952345	-18.160009760857793	484.6126299634731	485.1668125589863	-6.351145038167939	7.98473282442748	1.8625954198473282	0.1934032983508246	0.8245877061469266	0.9040479760119939	
1.7104016000176077E12	2.760869565217391	-6.315217391304348	4.010869565217392	3945.7875457875457	128.0	128.0	-9.656653363305733	-8.459362203998829	-18.11601556730456	484.6137117879048	485.1621246531159	-4.870229007633587	6.305343511450381	1.465648854961832	0.18590704647676162	0.8320839580209894	0.9115442278860569	
1.7104016000371396E12	2.7391304347826084	-6.315217391304348	3.9239130434782608	3945.7875457875457	128.0	128.0	-9.652614552094288	-8.408227969196794	-18.060842521291082	484.6082305441178	485.17287077580346	-4.8396946564885495	8.0	1.3129770992366412	0.1664167916041979	0.8365817091454273	0.9220389805097451	
1.7104016000566716E12	2.717391304347826	-6.380434782608695	3.9565217391304346	3945.7875457875457	128.0	128.0	-9.642012672664247	-8.392505454123668	-18.034518126787916	484.6101778280947	485.1769095870149	-3.5725190839694654	7.877862595419847	1.3587786259541985	0.18440779610194902	0.8350824587706147	0.9280359820089955	
1.7104016000762036E12	2.6956521739130435	-6.3478260869565215	3.9239130434782608	3925.274725274725	128.0	128.0	-9.657518822851042	-8.356733126250877	-18.01425194910192	484.61248572021555	485.221913483371	-3.2519083969465647	6.885496183206107	1.4351145038167938	0.17841079460269865	0.8440779610194902	0.9250374812593702	
1.7104016000957354E12	2.7391304347826084	-6.260869565217391	3.8478260869565215	3947.252747252747	128.0	128.0	-9.635521726074424	-8.354930085531484	-17.990451811605908	484.609456611807	485.2293420111349	-2.610687022900763	7.32824427480916	1.4045801526717556	0.18590704647676162	0.8215892053973013	0.9145427286356821	
1.7104016001152673E12	2.717391304347826	-6.271739130434782	3.891304347826087	3947.252747252747	128.0	128.0	-9.63782961819525	-8.327668109854235	-17.965497728049485	484.608807517148	485.23691478215636	-2.183206106870229	8.778625954198473	1.465648854961832	0.18590704647676162	0.8365817091454273	0.9145427286356821	
1.7104016001347993E12	2.6956521739130435	-6.293478260869565	3.9565217391304346	3944.322344322344	128.0	128.0	-9.625280454788262	-8.31439773015949	-17.939678184947752	484.6072208413149	485.1971036430721	-2.1374045801526718	9.068702290076336	1.6335877862595418	0.1664167916041979	0.8365817091454273	0.9145427286356821	
1.710401600154331E12	2.7065217391304346	-6.326086956521739	3.967391304347826	3945.7875457875457	128.0	128.0	-9.651460606033876	-8.389476345715089	-18.040936951748964	484.6085190306329	485.1515948953146	-1.129770992366412	9.16030534351145	1.465648854961832	0.16941529235382308	0.8350824587706147	0.9025487256371814	
1.710401600173863E12	2.6739130434782608	-6.3478260869565215	3.9456521739130435	3944.322344322344	128.0	128.0	-9.685862622959927	-8.495639383273051	-18.18150200623298	484.6100335848372	485.1138031618361	-0.4427480916030534	8.82442748091603	1.450381679389313	0.17391304347826086	0.8290854572713643	0.9145427286356821	
1.710401600193395E12	2.6630434782608696	-6.33695652173913	4.065217391304348	3945.7875457875457	128.0	128.0	-9.697762691707933	-8.525786224101331	-18.223548915809264	484.60895176040555	485.1021915796032	0.13740458015267176	7.938931297709924	1.114503816793893	0.17691154422788605	0.841079460269865	0.9175412293853074	
1.710401600212927E12	2.7282608695652173	-6.228260869565217	3.902173913043478	3945.7875457875457	128.0	128.0	-9.684564433641963	-8.526579562017865	-18.211143995659828	484.6106105578674	485.0997394442248	3.099236641221374	6.977099236641221	1.450381679389313	0.18590704647676162	0.8245877061469266	0.9145427286356821	
1.7104016002324587E12	2.652173913043478	-6.271739130434782	4.010869565217392	3923.8095238095234	128.0	128.0	-9.689612947656268	-8.51006370902821	-18.199676656684478	484.612990571617	485.10709585035994	0.8396946564885496	8.534351145038167	1.4351145038167938	0.17841079460269865	0.8290854572713643	0.9295352323838081	
1.7104016002519907E12	2.684782608695652	-6.260869565217391	4.0	3945.7875457875457	128.0	128.0	-9.688026271823201	-8.509630979255554	-18.197657251078756	484.61320693650333	485.1220971491453	1.5877862595419847	8.82442748091603	1.8473282442748091	0.17391304347826086	0.8470764617691154	0.9115442278860569	
1.7104016002715227E12	2.760869565217391	-6.25	4.010869565217392	3945.7875457875457	128.0	128.0	-9.678361973567245	-8.521098318230905	-18.19946029179815	484.6138560311623	485.1057255394132	2.3053435114503817	8.091603053435113	1.5725190839694656	0.18590704647676162	0.8470764617691154	0.9145427286356821	
1.7104016002910544E12	2.717391304347826	-6.326086956521739	4.08695652173913	3944.322344322344	128.0	128.0	-9.686367474361358	-8.511217655088622	-18.19758512944998	484.61378390953354	485.11337043206345	1.6335877862595418	9.633587786259541	1.66412213740458	0.17691154422788605	0.8275862068965517	0.9175412293853074	
1.7104016003105864E12	2.6956521739130435	-6.304347826086956	4.08695652173913	3945.7875457875457	128.0	128.0	-9.682256541521138	-8.52838260273726	-18.210639144258398	484.6161639232831	485.11661590535834	2.0	10.076335877862595	1.6946564885496183	0.1829085457271364	0.8395802098950524	0.896551724137931	
1.7104016003301184E12	2.684782608695652	-6.282608695652174	4.130434782608695	3923.8095238095234	128.0	128.0	-9.685357771558497	-8.535594765614839	-18.220952537173336	484.6141445176774	485.10529280964056	2.6412213740458013	9.801526717557252	1.83206106870229	0.17241379310344826	0.8380809595202399	0.9205397301349325	
1.7104016003496501E12	2.641304347826087	-6.260869565217391	4.130434782608695	3944.322344322344	128.0	128.0	-9.681751690119707	-8.56350583595107	-18.245257526070777	484.61024994972354	485.1042109852089	2.015267175572519	9.053435114503817	1.5877862595419847	0.17841079460269865	0.8320839580209894	0.9190404797601199	
1.7104016003691821E12	2.630434782608696	-6.282608695652174	4.130434782608695	3945.7875457875457	128.0	128.0	-9.673385581181716	-8.46859377248213	-18.141979353663846	484.6135675446472	485.0931763760062	1.3740458015267174	9.374045801526718	1.6335877862595418	0.1829085457271364	0.8395802098950524	0.9190404797601199	
1.710401600388714E12	2.6630434782608696	-6.293478260869565	4.1521739130434785	3923.8095238095234	128.0	128.0	-9.65499456584389	-8.349953693145952	-18.00494825898984	484.61125965252637	485.0731986848353	0.6717557251908397	8.580152671755725	1.7404580152671756	0.1829085457271364	0.8395802098950524	0.9220389805097451	
1.710401600408246E12	2.652173913043478	-6.271739130434782	4.173913043478261	3945.7875457875457	128.0	128.0	-9.633430198839926	-8.379235074428925	-18.01266527326885	484.61255784184436	485.05141795294503	0.22900763358778625	8.106870229007633	1.3435114503816794	0.17991004497751123	0.8380809595202399	0.9205397301349325	
1.7104016004277778E12	2.641304347826087	-6.25	4.184782608695652	3945.7875457875457	128.0	128.0	-9.671654662091097	-8.571583458373958	-18.243238120465055	484.61991424797947	485.09404183555154	0.061068702290076333	7.740458015267175	1.1755725190839694	0.17841079460269865	0.8290854572713643	0.9115442278860569	
1.7104016004473098E12	2.6630434782608696	-6.271739130434782	4.173913043478261	3944.322344322344	128.0	128.0	-9.710239733486144	-8.635050491696656	-18.3452902251828	484.616524531427	485.11163951297283	-0.2748091603053435	7.648854961832061	1.0076335877862594	0.17091454272863568	0.8245877061469266	0.9190404797601199	
1.7104016004668418E12	2.6739130434782608	-6.260869565217391	4.141304347826087	3947.252747252747	128.0	128.0	-9.710672463258799	-8.631805018401746	-18.342477481660545	484.6155869502529	485.109331620852	-0.7175572519083969	8.183206106870228	1.1603053435114503	0.18440779610194902	0.8305847076461769	0.9280359820089955	
1.7104016004863735E12	2.652173913043478	-6.260869565217391	4.206521739130435	3926.7399267399264	128.0	128.0	-9.690694772087905	-8.671760400743533	-18.36245517283144	484.616524531427	485.1264965685006	-1.1603053435114503	8.946564885496183	1.3587786259541985	0.17391304347826086	0.8395802098950524	0.9085457271364318	
1.7104016005059055E12	2.630434782608696	-6.271739130434782	4.173913043478261	3947.252747252747	128.0	128.0	-9.70483061132796	-8.762417288114701	-18.46724789944266	484.61890454517663	485.25595489215317	-1.2671755725190839	8.839694656488549	1.5877862595419847	0.16941529235382308	0.8380809595202399	0.9205397301349325	
1.7104016005254375E12	2.6630434782608696	-6.282608695652174	4.184782608695652	3945.7875457875457	128.0	128.0	-9.404227662590465	-7.379124448195032	-16.783352110785497	484.616524531427	484.18566992112045	-1.7099236641221374	8.687022900763358	1.4045801526717556	0.17991004497751123	0.8350824587706147	0.9100449775112444	
1.7104016005449692E12	2.6739130434782608	-6.206521739130435	4.293478260869565	3923.8095238095234	128.0	128.0	-9.665163715501276	-8.449193054341443	-18.11435676984272	484.6169572611997	484.6041917329064	-1.9389312977099236	8.0	1.5572519083969465	0.17691154422788605	0.8350824587706147	0.9130434782608695	
1.7104016005645012E12	2.684782608695652	-6.163043478260869	4.032608695652174	3944.322344322344	128.0	128.0	-9.664803107357397	-8.574540445153765	-18.239343552511162	484.6155869502529	485.1165437837296	-3.9389312977099236	7.740458015267175	1.5419847328244274	0.16941529235382308	0.841079460269865	0.9025487256371814	
1.7104016005840332E12	2.6630434782608696	-6.391304347826087	4.4021739130434785	3945.7875457875457	128.0	128.0	-9.672303756750079	-8.613558246321471	-18.28586200307155	484.6157311935105	485.15779735538933	-6.045801526717557	7.419847328244274	1.5877862595419847	0.1829085457271364	0.8245877061469266	0.9220389805097451	
1.7104016006035652E12	2.7065217391304346	-6.25	4.239130434782608	3944.322344322344	128.0	128.0	-9.66148551243371	-8.633896545636244	-18.295382058069954	484.6153705853666	485.1756113976969	-1.2061068702290076	7.175572519083969	1.6793893129770991	0.18440779610194902	0.8230884557721139	0.9130434782608695	
1.710401600623097E12	2.5978260869565215	-6.1521739130434785	4.163043478260869	3945.7875457875457	128.0	128.0	-9.646700578534674	-8.636853532416048	-18.28355411095072	484.614288760935	485.19695939981455	-1.2213740458015268	9.526717557251908	1.282442748091603	0.1664167916041979	0.8290854572713643	0.9115442278860569	
1.710401600642629E12	2.5543478260869565	-6.304347826086956	4.173913043478261	3945.7875457875457	128.0	128.0	-9.650450903231015	-8.604470921095718	-18.254921824326733	484.6154427069954	485.1981854675038	-6.229007633587786	8.534351145038167	1.8473282442748091	0.18440779610194902	0.8200899550224887	0.8995502248875562	
1.710401600662161E12	2.717391304347826	-6.293478260869565	4.260869565217392	3945.7875457875457	128.0	128.0	-9.652470308836737	-8.5914169062873	-18.243887215124037	484.6183275721464	485.2222019698861	-4.5038167938931295	5.557251908396946	1.3740458015267174	0.17241379310344826	0.8455772113943029	0.9175412293853074	
1.7104016006816926E12	2.6956521739130435	-6.304347826086956	4.239130434782608	3945.7875457875457	128.0	128.0	-9.626795008992554	-8.557663984020232	-18.184458993012786	484.61580331513926	485.22523107829466	-3.7404580152671754	6.702290076335878	1.1755725190839694	0.17091454272863568	0.8215892053973013	0.9010494752623688	
1.7104016007012246E12	2.619565217391304	-6.326086956521739	4.195652173913043	3922.344322344322	128.0	128.0	-9.640065388687301	-8.527445021563175	-18.167510410250475	484.6164524097982	485.27975502964915	-2.717557251908397	8.320610687022901	1.1450381679389312	0.18440779610194902	0.8380809595202399	0.9280359820089955	
1.7104016007207566E12	2.6630434782608696	-6.228260869565217	4.130434782608695	3947.252747252747	128.0	128.0	-9.622828319409885	-8.506097019445543	-18.128925338855428	484.6150099772227	485.311344303053	-1.66412213740458	7.648854961832061	1.0229007633587786	0.17091454272863568	0.8365817091454273	0.9145427286356821	
1.7104016007402886E12	2.641304347826087	-6.25	4.130434782608695	3945.7875457875457	128.0	128.0	-9.628958657855827	-8.497803032136327	-18.126761689992154	484.61169238229905	485.347044509297	-1.8625954198473282	7.022900763358779	1.0534351145038168	0.17691154422788605	0.8275862068965517	0.9175412293853074	
1.7104016007598203E12	2.652173913043478	-6.260869565217391	4.1521739130434785	3944.322344322344	128.0	128.0	-9.630473212060119	-8.467511948050495	-18.097985160110614	484.61097116601127	485.3319710888828	-2.8396946564885495	7.358778625954198	1.0229007633587786	0.17991004497751123	0.8305847076461769	0.9175412293853074	
1.7104016007793523E12	2.619565217391304	-6.282608695652174	4.173913043478261	3944.322344322344	128.0	128.0	-9.610279156002898	-8.448616081311238	-18.058895237314136	484.61125965252637	485.2903569090792	-2.16793893129771	7.1603053435114505	1.3282442748091603	0.17391304347826086	0.8365817091454273	0.9220389805097451	
1.7104016007988843E12	2.652173913043478	-6.293478260869565	4.184782608695652	3929.6703296703295	128.0	128.0	-9.652830916980616	-8.57410771538111	-18.226938632361726	484.61104328764003	485.2426845124584	-1.7099236641221374	7.419847328244274	1.3282442748091603	0.16941529235382308	0.8380809595202399	0.9100449775112444	
1.710401600818416E12	2.630434782608696	-6.293478260869565	4.021739130434782	3945.7875457875457	128.0	128.0	-9.655715782131647	-8.641613559915253	-18.2973293420469	484.6083026657466	485.210013414623	-1.4961832061068703	7.587786259541985	1.2366412213740459	0.17691154422788605	0.8350824587706147	0.9205397301349325	
1.710401600837948E12	2.6739130434782608	-6.239130434782608	4.228260869565217	3945.7875457875457	128.0	128.0	-9.67518862190111	-8.663827021578197	-18.339015643479307	484.6152984637378	485.2196055912502	-0.5343511450381679	7.603053435114504	1.1450381679389312	0.18440779610194902	0.8275862068965517	0.9130434782608695	
1.71040160085748E12	2.652173913043478	-6.217391304347826	4.239130434782608	3923.8095238095234	128.0	128.0	-9.65001817345836	-8.658994872450219	-18.30901304590858	484.60779781434513	485.2125376716301	0.13740458015267176	7.1603053435114505	1.297709923664122	0.1649175412293853	0.8230884557721139	0.9205397301349325	
1.7104016008770117E12	2.6739130434782608	-6.25	4.206521739130435	3920.879120879121	128.0	128.0	-9.66184612057759	-8.66361065669187	-18.32545677726946	484.6104663146098	485.23395779537657	-2.748091603053435	9.694656488549619	0.8549618320610687	0.17691154422788605	0.8380809595202399	0.9055472263868065	
1.7104016008965437E12	2.6739130434782608	-6.25	4.228260869565217	3945.7875457875457	128.0	128.0	-9.662495215236572	-8.644786911581388	-18.30728212681796	484.6084469090041	485.23251536280105	-1.5572519083969465	8.458015267175572	0.9770992366412213	0.17991004497751123	0.841079460269865	0.9130434782608695	
1.7104016009160757E12	2.6739130434782608	-6.206521739130435	4.25	3944.322344322344	128.0	128.0	-9.658817012169006	-8.675005874038444	-18.33382288620745	484.60924024692065	485.2371311470427	-1.450381679389313	8.458015267175572	0.9618320610687022	0.17841079460269865	0.8320839580209894	0.9145427286356821	
1.7104016009356077E12	2.652173913043478	-6.195652173913043	4.228260869565217	3945.7875457875457	128.0	128.0	-9.646628456905898	-8.69563265986832	-18.342261116774218	484.61010570646596	485.24924758067704	-1.7557251908396947	8.99236641221374	1.2671755725190839	0.17991004497751123	0.8350824587706147	0.9055472263868065	
1.7104016009551394E12	2.619565217391304	-6.239130434782608	4.25	3931.135531135531	128.0	128.0	-9.65362425489715	-8.677962860818251	-18.3315871157154	484.6088796387768	485.2487427292756	-1.2061068702290076	9.053435114503817	1.5267175572519083	0.1664167916041979	0.8470764617691154	0.9040479760119939	
1.7104016009746714E12	2.608695652173913	-6.25	4.228260869565217	3917.948717948718	128.0	128.0	-9.658961255426558	-8.707172120472446	-18.366133375899004	484.61190874718534	485.25602701378193	-1.2671755725190839	8.580152671755725	1.465648854961832	0.17391304347826086	0.8395802098950524	0.9085457271364318	
1.7104016009942034E12	2.5760869565217392	-6.282608695652174	4.25	3944.322344322344	128.0	128.0	-9.653047281866943	-8.710778201911236	-18.36382548377818	484.61133177415513	485.2565318651834	-1.2671755725190839	7.66412213740458	1.5877862595419847	0.17691154422788605	0.8350824587706147	0.9130434782608695	
1.710401601013735E12	2.532608695652174	-6.260869565217391	4.25	3920.879120879121	128.0	128.0	-9.652181822321634	-8.713158215660837	-18.36534003798247	484.61349542301843	485.2540076081762	-1.4809160305343512	7.969465648854961	1.4809160305343512	0.1649175412293853	0.8350824587706147	0.9100449775112444	
1.710401601033267E12	2.5217391304347827	-6.271739130434782	4.282608695652174	3919.4139194139193	128.0	128.0	-9.653552133268374	-8.6322377481744	-18.285789881442774	484.6121251120717	485.2525651756007	-2.4885496183206106	8.229007633587786	1.648854961832061	0.15742128935532235	0.8275862068965517	0.9100449775112444	
1.710401601052799E12	2.5	-6.315217391304348	4.25	3945.7875457875457	128.0	128.0	-9.638622956111783	-8.543888752924056	-18.18251170903584	484.6100335848372	485.23561659283837	-2.763358778625954	7.893129770992366	1.1603053435114503	0.17691154422788605	0.8230884557721139	0.9100449775112444	
1.710401601072331E12	2.5543478260869565	-6.304347826086956	4.239130434782608	3944.322344322344	128.0	128.0	-9.603283358011646	-8.582257459432777	-18.185540817444423	484.6145772474501	485.21578314492507	-2.045801526717557	7.49618320610687	1.2061068702290076	0.18590704647676162	0.8395802098950524	0.9115442278860569	
1.7104016010918628E12	2.5652173913043477	-6.206521739130435	4.25	3945.7875457875457	128.0	128.0	-9.630689576946446	-8.703854525548762	-18.334544102495208	484.6163081665407	485.2358329577247	-1.5877862595419847	6.977099236641221	0.9312977099236641	0.17691154422788605	0.841079460269865	0.9100449775112444	
1.7104016011113948E12	2.5869565217391304	-6.195652173913043	4.260869565217392	3932.6007326007325	128.0	128.0	-9.6856462580736	-8.771937343113105	-18.457583601186705	484.6141445176774	485.2567482300697	-1.8778625954198473	7.022900763358779	1.0381679389312977	0.17691154422788605	0.8305847076461769	0.9025487256371814	
1.7104016011309268E12	2.5869565217391304	-6.195652173913043	4.239130434782608	3945.7875457875457	128.0	128.0	-9.681679568490932	-8.795593237351564	-18.477272805842496	484.61674089631333	485.2672058662422	-2.1221374045801524	6.99236641221374	1.2366412213740459	0.1664167916041979	0.8245877061469266	0.9190404797601199	
1.7104016011504585E12	2.5543478260869565	-6.195652173913043	4.239130434782608	3944.322344322344	128.0	128.0	-9.66595705341781	-8.850045067077286	-18.516002120495095	484.6179669640025	485.3145176547191	-2.748091603053435	7.770992366412213	1.1755725190839694	0.1829085457271364	0.8365817091454273	0.9250374812593702	
1.7104016011699905E12	2.5652173913043477	-6.228260869565217	4.271739130434782	3920.879120879121	128.0	128.0	-9.622539832894782	-8.870599731278388	-18.49313956417317	484.619409396578	485.4536402766276	-3.3435114503816794	8.015267175572518	1.4961832061068703	0.17691154422788605	0.8380809595202399	0.9055472263868065	
1.7104016011895225E12	2.608695652173913	-6.239130434782608	4.304347826086956	3945.7875457875457	128.0	128.0	-9.32222537067239	-7.569164940019244	-16.891390310691634	484.6160196800256	484.3379186794661	-3.9083969465648853	8.030534351145038	1.5877862595419847	0.17091454272863568	0.8320839580209894	0.9220389805097451	
1.7104016012090542E12	2.5543478260869565	-6.25	4.380434782608695	3944.322344322344	128.0	128.0	-9.723942842953544	-8.829418281247413	-18.553361124200958	484.6168130179421	484.9345087926995	-4.198473282442748	7.9541984732824424	1.465648854961832	0.1664167916041979	0.8320839580209894	0.9250374812593702	
1.7104016012285862E12	2.641304347826087	-6.228260869565217	4.282608695652174	3944.322344322344	128.0	128.0	-9.631555036491756	-8.703277552518555	-18.33483258901031	484.61392815279106	485.247011810185	-5.175572519083969	7.877862595419847	0.6412213740458015	0.1874062968515742	0.8230884557721139	0.9100449775112444	
1.7104016012481182E12	2.630434782608696	-6.3478260869565215	4.369565217391305	3945.7875457875457	128.0	128.0	-9.654850322586338	-8.728448000961304	-18.383298323547642	484.6173899909723	485.3019684913121	-6.748091603053435	7.267175572519084	0.549618320610687	0.17841079460269865	0.8395802098950524	0.9190404797601199	
1.7104016012676501E12	2.5652173913043477	-6.217391304347826	4.228260869565217	3945.7875457875457	128.0	128.0	-9.6445369296714	-8.752392381714866	-18.396929311386266	484.6144330041925	485.3211528445665	-3.2061068702290076	6.702290076335878	0.8396946564885496	0.17241379310344826	0.8455772113943029	0.9175412293853074	
1.710401601287182E12	2.5543478260869565	-6.163043478260869	4.271739130434782	3945.7875457875457	128.0	128.0	-9.632276252779514	-8.739915339936656	-18.37219159271617	484.6107548011249	485.3430778197143	-3.5267175572519083	9.145038167938932	0.6412213740458015	0.17841079460269865	0.8245877061469266	0.9145427286356821	
1.7104016013067139E12	2.532608695652174	-6.304347826086956	4.293478260869565	3945.7875457875457	128.0	128.0	-9.625857427818469	-8.712364877744305	-18.338222305562773	484.6101778280947	485.3481984553574	-7.709923664122137	7.450381679389313	0.916030534351145	0.17091454272863568	0.8320839580209894	0.9190404797601199	
1.7104016013262458E12	2.630434782608696	-6.33695652173913	4.293478260869565	3922.344322344322	128.0	128.0	-9.617563440509253	-8.666928251615557	-18.28449169212481	484.6078699359739	485.37308041728505	-6.687022900763359	4.5038167938931295	0.47328244274809156	0.17241379310344826	0.841079460269865	0.9130434782608695	
1.7104016013457776E12	2.630434782608696	-6.304347826086956	4.282608695652174	3947.252747252747	128.0	128.0	-9.603716087784301	-8.649474817451813	-18.253190905236114	484.60332627336106	485.3809416748216	-5.6183206106870225	5.3893129770992365	-0.061068702290076333	0.16941529235382308	0.8305847076461769	0.9175412293853074	
1.7104016013653096E12	2.5978260869565215	-6.304347826086956	4.260869565217392	3945.7875457875457	128.0	128.0	-9.616770102592719	-8.610889746056765	-18.227659848649484	484.60426385453513	485.40842001538516	-4.931297709923664	6.3969465648854955	-0.3511450381679389	0.17241379310344826	0.8380809595202399	0.9130434782608695	
1.7104016013848416E12	2.543478260869565	-6.228260869565217	4.173913043478261	3944.322344322344	128.0	128.0	-9.59498937070243	-8.589685987196683	-18.184675357899113	484.6012347461265	485.4449856811745	-4.67175572519084	4.870229007633587	-0.3969465648854962	0.1664167916041979	0.8245877061469266	0.9145427286356821	
1.7104016014043735E12	2.5760869565217392	-6.217391304347826	4.195652173913043	3945.7875457875457	128.0	128.0	-9.596936654679377	-8.555500335156959	-18.152436989836335	484.60202808404307	485.4653239804893	-5.435114503816794	3.0381679389312977	-0.4427480916030534	0.16941529235382308	0.8305847076461769	0.9025487256371814	
1.7104016014239053E12	2.543478260869565	-6.326086956521739	4.260869565217392	3919.4139194139193	128.0	128.0	-9.585469315704026	-8.52600258898766	-18.111471904691687	484.5999365568086	485.4630160883685	-6.748091603053435	2.916030534351145	-0.7022900763358778	0.17241379310344826	0.8455772113943029	0.9205397301349325	
1.7104016014434373E12	2.543478260869565	-6.391304347826087	4.271739130434782	3944.322344322344	128.0	128.0	-9.60681731782166	-8.514391006754758	-18.12120832457642	484.6008020163539	485.4121703400815	-6.137404580152672	0.8396946564885496	-0.8091603053435115	0.1634182908545727	0.8395802098950524	0.9220389805097451	
1.7104016014629692E12	2.5760869565217392	-6.33695652173913	4.25	3945.7875457875457	128.0	128.0	-9.625785306189693	-8.617957665676792	-18.243742971866485	484.5961141104834	485.3633439974003	-5.0534351145038165	0.12213740458015267	-0.3511450381679389	0.18440779610194902	0.8275862068965517	0.9055472263868065	
1.710401601482501E12	2.619565217391304	-6.282608695652174	4.1521739130434785	3920.879120879121	128.0	128.0	-9.667760094137204	-8.63360805912114	-18.301368153258345	484.59705169165755	485.351227563766	-4.0	-0.7480916030534351	-0.4580152671755725	0.1874062968515742	0.8380809595202399	0.9100449775112444	
1.710401601502033E12	2.7065217391304346	-6.260869565217391	4.228260869565217	3947.252747252747	128.0	128.0	-9.664803107357397	-8.660797913169613	-18.32560102052701	484.5977007863165	485.35988215921907	-4.778625954198473	-0.5190839694656488	-0.16793893129770993	0.17391304347826086	0.8395802098950524	0.9115442278860569	
1.710401601521565E12	2.5978260869565215	-6.239130434782608	4.239130434782608	3945.7875457875457	128.0	128.0	-9.653047281866943	-8.639305667794428	-18.29235294966137	484.59344561021874	485.3672385653542	-3.9541984732824424	-0.24427480916030533	0.366412213740458	0.1664167916041979	0.8365817091454273	0.9040479760119939	
1.7104016015410967E12	2.652173913043478	-6.315217391304348	4.260869565217392	3944.322344322344	128.0	128.0	-9.653191525124495	-8.62617953135723	-18.279371056481725	484.5940947048777	485.3812301613367	-7.450381679389313	0.5343511450381679	-0.030534351145038167	0.17841079460269865	0.8215892053973013	0.9220389805097451	
1.7104016015606287E12	2.6739130434782608	-6.315217391304348	4.195652173913043	3945.7875457875457	128.0	128.0	-9.643887835012418	-8.653802115178362	-18.29768995019078	484.5953928941957	485.4009914876213	-6.427480916030534	-1.083969465648855	-0.183206106870229	0.1619190404797601	0.8305847076461769	0.9280359820089955	
1.7104016015801606E12	2.641304347826087	-6.282608695652174	4.173913043478261	3920.879120879121	128.0	128.0	-9.659177620312885	-8.621203138971701	-18.280380759284586	484.5912098397267	485.4130357996268	-6.244274809160305	-1.0076335877862594	-0.3053435114503817	0.17241379310344826	0.8230884557721139	0.9100449775112444	
1.7104016015996926E12	2.630434782608696	-6.33695652173913	4.173913043478261	3944.322344322344	128.0	128.0	-9.636819915392389	-8.65113361491366	-18.287953530306048	484.59106559646915	485.43438380174445	-6.3969465648854955	0.21374045801526717	-0.3511450381679389	0.17691154422788605	0.841079460269865	0.9175412293853074	
1.7104016016192244E12	2.6956521739130435	-6.304347826086956	4.195652173913043	3945.7875457875457	128.0	128.0	-9.633935050241357	-8.665053089267387	-18.298988139508744	484.5915704478706	485.43315773405527	-6.091603053435114	0.2900763358778626	0.15267175572519084	0.17691154422788605	0.8305847076461769	0.9130434782608695	
1.7104016016387563E12	2.717391304347826	-6.304347826086956	4.0978260869565215	3920.879120879121	128.0	128.0	-9.647998767852638	-8.669380386993932	-18.31737915484657	484.5932292453324	485.4610688043915	-6.076335877862595	0.16793893129770993	0.061068702290076333	0.16941529235382308	0.8455772113943029	0.9055472263868065	
1.7104016016582883E12	2.6630434782608696	-6.293478260869565	4.032608695652174	3947.252747252747	128.0	128.0	-9.647493916451207	-8.675871333583753	-18.32336525003496	484.58947892063605	485.4656124670044	-5.572519083969466	0.1984732824427481	-0.12213740458015267	0.18590704647676162	0.8290854572713643	0.9115442278860569	
1.71040160167782E12	2.684782608695652	-6.228260869565217	4.076086956521739	3945.7875457875457	128.0	128.0	-9.649296957170602	-8.684453807408072	-18.333750764578674	484.5930128804461	485.49222534802266	-5.435114503816794	0.3969465648854962	-0.10687022900763359	0.17691154422788605	0.8275862068965517	0.9055472263868065	
1.710401601697352E12	2.7717391304347827	-6.260869565217391	4.065217391304348	3944.322344322344	128.0	128.0	-9.631555036491756	-8.563794322466174	-18.19534935895793	484.5952486509381	485.4852295500314	-4.977099236641221	0.6564885496183206	-0.16793893129770993	0.17841079460269865	0.8365817091454273	0.9085457271364318	
1.710401601716884E12	2.8369565217391304	-6.271739130434782	4.0978260869565215	3945.7875457875457	128.0	128.0	-9.60595185827635	-8.502490938006753	-18.108442796283104	484.59762866468776	485.4858786446904	-5.1603053435114505	1.6946564885496183	0.061068702290076333	0.18440779610194902	0.8305847076461769	0.9175412293853074	
1.710401601736416E12	2.869565217391304	-6.239130434782608	4.0978260869565215	3939.9267399267396	128.0	128.0	-9.566861935479873	-8.55651003795982	-18.123371973439692	484.5944553130216	485.50801998472457	-5.312977099236641	3.5267175572519083	-0.22900763358778625	0.17991004497751123	0.8350824587706147	0.9025487256371814	
1.7104016017559478E12	2.8369565217391304	-6.260869565217391	4.021739130434782	3945.7875457875457	128.0	128.0	-9.594412397672224	-8.657191831730822	-18.251604229403046	484.5969074484	485.52770918938035	-4.9465648854961835	4.259541984732825	-0.4427480916030534	0.1664167916041979	0.8575712143928036	0.9190404797601199	
1.7104016017754797E12	2.8152173913043477	-6.260869565217391	4.054347826086956	3945.7875457875457	128.0	128.0	-9.620304062402733	-8.740564434595639	-18.36086849699837	484.59604198885467	485.55158144850515	-4.9465648854961835	4.259541984732825	-1.1603053435114503	0.17391304347826086	0.8470764617691154	0.9115442278860569	
1.7104016017950117E12	2.8152173913043477	-6.228260869565217	3.9456521739130435	3920.879120879121	128.0	128.0	-9.614606453729445	-8.75030085448037	-18.364907308209816	484.5941668265065	485.5774731132356	-5.068702290076335	5.374045801526718	-0.8549618320610687	0.17241379310344826	0.8455772113943029	0.9205397301349325	
1.7104016018145435E12	2.7717391304347827	-6.206521739130435	3.9239130434782608	3945.7875457875457	128.0	128.0	-9.619943454258854	-8.725563135810274	-18.345506590069128	484.59604198885467	485.58454103285567	-4.885496183206107	5.969465648854961	-0.5190839694656488	0.17091454272863568	0.8395802098950524	0.9220389805097451	
1.7104016018340754E12	2.782608695652174	-6.206521739130435	3.9782608695652173	3944.322344322344	128.0	128.0	-9.549336379687356	-8.798189615987495	-18.34752599567485	484.5977729079453	485.75828203657653	-4.885496183206107	6.5038167938931295	-0.2900763358778626	0.17691154422788605	0.8200899550224887	0.9100449775112444	
1.7104016018536074E12	2.8260869565217392	-6.25	3.9565217391304346	3944.322344322344	128.0	128.0	-9.269071730264633	-7.650878745422213	-16.919950475686846	484.5989989756345	484.85091982494833	-5.419847328244274	6.580152671755725	-0.33587786259541985	0.16941529235382308	0.8305847076461769	0.9130434782608695	
1.7104016018731392E12	2.8152173913043477	-6.25	4.130434782608695	3944.322344322344	128.0	128.0	-9.655138809101441	-8.765951247924715	-18.421090057026156	484.5981335160892	485.3194940471046	-5.679389312977099	5.938931297709924	-0.2595419847328244	0.17991004497751123	0.8305847076461769	0.9025487256371814	
1.7104016018926711E12	2.8369565217391304	-6.239130434782608	3.934782608695652	3944.322344322344	128.0	128.0	-9.587993572711179	-8.618895246850878	-18.206888819562057	484.59633047536977	485.57927615395505	-6.854961832061068	6.2748091603053435	-0.48854961832061067	0.17991004497751123	0.8275862068965517	0.9100449775112444	
1.7104016019122031E12	2.8260869565217392	-6.4021739130434785	4.195652173913043	3917.948717948718	128.0	128.0	-9.59534997884631	-8.597403001475692	-18.192752980322002	484.59705169165755	485.65096505295816	-8.717557251908397	6.045801526717557	-0.4427480916030534	0.17391304347826086	0.8365817091454273	0.9145427286356821	
1.710401601931735E12	2.7391304347826084	-6.315217391304348	4.076086956521739	3945.7875457875457	128.0	128.0	-9.614029480699239	-8.580887148486037	-18.194916629185276	484.596258353741	485.67865975840806	-5.557251908396946	8.045801526717558	-0.3511450381679389	0.1934032983508246	0.8320839580209894	0.9145427286356821	
1.7104016019512668E12	2.7065217391304346	-6.173913043478261	4.0	3920.879120879121	128.0	128.0	-9.56981892225968	-8.568193741821498	-18.138012664081177	484.5968353267712	485.6979162332912	-2.6717557251908395	11.404580152671755	-0.12213740458015267	0.17691154422788605	0.8455772113943029	0.8995502248875562	
1.7104016019707988E12	2.7391304347826084	-6.260869565217391	3.8804347826086953	3945.7875457875457	128.0	128.0	-9.578617760970326	-8.537181441447908	-18.115799202418234	484.59604198885467	485.7262600334001	-7.648854961832061	9.587786259541984	0.33587786259541985	0.1829085457271364	0.8245877061469266	0.9145427286356821	
1.7104016019903308E12	2.8152173913043477	-6.315217391304348	4.0	3945.7875457875457	128.0	128.0	-9.574723193016434	-8.482585368464635	-18.05730856148107	484.5966189618849	485.7392419265797	-7.358778625954198	7.251908396946565	0.061068702290076333	0.18590704647676162	0.8440779610194902	0.9190404797601199	
1.7104016020098625E12	2.8043478260869565	-6.293478260869565	3.9239130434782608	3944.322344322344	128.0	128.0	-9.560515232147603	-8.418252875596627	-17.97876810774423	484.59503228605183	485.76758572668865	-5.862595419847328	8.13740458015267	0.13740458015267176	0.18590704647676162	0.8290854572713643	0.9145427286356821	
1.7104016020293945E12	2.75	-6.33695652173913	3.934782608695652	3947.252747252747	128.0	128.0	-9.549192136429804	-8.387384818480589	-17.936576954910393	484.59532077256694	485.79326102653283	-4.763358778625954	8.961832061068701	0.12213740458015267	0.1829085457271364	0.8215892053973013	0.9040479760119939	
1.7104016020489265E12	2.7391304347826084	-6.25	3.858695652173913	3945.7875457875457	128.0	128.0	-9.552149123209611	-8.361132545606202	-17.913281668815813	484.59474379953673	485.852400762129	-4.519083969465648	7.83206106870229	0.12213740458015267	0.1829085457271364	0.8290854572713643	0.9115442278860569	
1.7104016020684585E12	2.760869565217391	-6.195652173913043	3.891304347826087	3945.7875457875457	128.0	128.0	-9.533181134841579	-8.346708219851044	-17.879889354692622	484.5943831913928	485.86314688481656	-3.709923664122137	7.190839694656488	0.2595419847328244	0.18590704647676162	0.8245877061469266	0.9190404797601199	
1.7104016020879902E12	2.7717391304347827	-6.304347826086956	3.9130434782608696	3945.7875457875457	128.0	128.0	-9.529142323630134	-8.29297760641308	-17.822119930043215	484.5912819613555	485.86740206091434	-4.748091603053435	7.6183206106870225	0.5343511450381679	0.17841079460269865	0.8320839580209894	0.9145427286356821	
1.7104016021075222E12	2.7717391304347827	-6.33695652173913	3.9456521739130435	3923.8095238095234	128.0	128.0	-9.54241270332488	-8.267158063311348	-17.809570766636227	484.5912819613555	485.8107865823253	-4.290076335877862	7.801526717557252	0.7786259541984732	0.1829085457271364	0.8395802098950524	0.9190404797601199	
1.7104016021270542E12	2.7717391304347827	-6.326086956521739	3.9782608695652173	3947.252747252747	128.0	128.0	-9.580637166576048	-8.311945594781113	-17.89258276135716	484.59431106976405	485.77285060558927	-3.618320610687023	7.541984732824427	0.8854961832061068	0.1874062968515742	0.8275862068965517	0.8995502248875562	
1.710401602146586E12	2.782608695652174	-6.33695652173913	3.75	3945.7875457875457	128.0	128.0	-9.593186329983036	-8.401376414463092	-17.994562744446128	484.59164256949936	485.7564068742284	-2.396946564885496	7.404580152671755	0.7022900763358778	0.17841079460269865	0.8365817091454273	0.9145427286356821	
1.710401602166118E12	2.8260869565217392	-6.25	4.010869565217392	3944.322344322344	128.0	128.0	-9.609918547859019	-8.416882564649887	-18.026801112508906	484.58983952878	485.75150260347164	-0.7022900763358778	7.221374045801526	1.3129770992366412	0.17691154422788605	0.8230884557721139	0.9175412293853074	
1.71040160218565E12	2.75	-6.260869565217391	3.8260869565217392	3920.879120879121	128.0	128.0	-9.607033682707987	-8.37880234465627	-17.985836027364257	484.592075299272	485.75251230627447	-3.6488549618320607	7.419847328244274	1.0076335877862594	0.1829085457271364	0.8365817091454273	0.9190404797601199	
1.7104016022051816E12	2.75	-6.293478260869565	4.032608695652174	3942.8571428571427	128.0	128.0	-9.616265251191288	-8.358391923712722	-17.97465717490401	484.59286863718853	485.76938876740803	-4.015267175572519	6.854961832061068	0.7480916030534351	0.17991004497751123	0.8125937031484257	0.9130434782608695	
1.7104016022247136E12	2.8043478260869565	-6.293478260869565	3.858695652173913	3945.7875457875457	128.0	128.0	-9.600614857746942	-8.377071425565651	-17.977686283312593	484.5912098397267	485.78539976899623	-2.4122137404580153	6.99236641221374	0.6717557251908397	0.1934032983508246	0.8395802098950524	0.9145427286356821	
1.7104016022442456E12	2.8152173913043477	-6.293478260869565	3.9891304347826084	3945.7875457875457	128.0	128.0	-9.58438749127239	-8.397049116736545	-17.981436608008934	484.59063286669647	485.78828463414726	-2.549618320610687	8.396946564885496	0.9465648854961831	0.17691154422788605	0.8350824587706147	0.9235382308845577	
1.7104016022637776E12	2.75	-6.358695652173913	3.967391304347826	3922.344322344322	128.0	128.0	-9.600037884716736	-8.388827251056105	-17.98886513577284	484.5912098397267	485.7859046203977	-1.6030534351145038	9.022900763358779	1.2671755725190839	0.17991004497751123	0.8305847076461769	0.9130434782608695	
1.7104016022833093E12	2.760869565217391	-6.33695652173913	3.9782608695652173	3945.7875457875457	128.0	128.0	-9.608980966684934	-8.373176857611758	-17.982157824296692	484.594960164423	485.78503916085236	-1.0534351145038168	9.17557251908397	0.7480916030534351	0.17841079460269865	0.8365817091454273	0.9220389805097451	
1.7104016023028413E12	2.7282608695652173	-6.282608695652174	3.9782608695652173	3945.7875457875457	128.0	128.0	-9.59123904600609	-8.386014507533849	-17.97725355353994	484.5938062183626	485.7830918768754	-1.816793893129771	8.65648854961832	0.9465648854961831	0.19790104947526235	0.8215892053973013	0.9085457271364318	
1.7104016023223733E12	2.7391304347826084	-6.271739130434782	4.021739130434782	3944.322344322344	128.0	128.0	-9.583449910098304	-8.307978905198445	-17.89142881529675	484.5941668265065	485.7892222153214	-2.717557251908397	8.244274809160306	1.0076335877862594	0.17691154422788605	0.8350824587706147	0.9130434782608695	
1.710401602341905E12	2.7391304347826084	-6.260869565217391	3.9782608695652173	3945.7875457875457	128.0	128.0	-9.568737097828043	-8.233333019415502	-17.802070117243545	484.5917868127569	485.7885009990336	-3.0229007633587783	7.801526717557252	1.2519083969465647	0.17391304347826086	0.8395802098950524	0.9085457271364318	
1.710401602361437E12	2.75	-6.260869565217391	3.934782608695652	3941.391941391941	128.0	128.0	-9.566789813851097	-8.229366329832834	-17.79615614368393	484.5920031776432	485.7798464035805	-2.9770992366412212	7.541984732824427	0.732824427480916	0.17391304347826086	0.8365817091454273	0.9220389805097451	
1.710401602380969E12	2.760869565217391	-6.304347826086956	3.9891304347826084	3944.322344322344	128.0	128.0	-9.566645570593545	-8.361204667234977	-17.927850237828522	484.58976740715116	485.80148289221324	-2.7938931297709924	7.633587786259541	0.3969465648854962	0.17841079460269865	0.8245877061469266	0.9085457271364318	
1.710401602400501E12	2.793478260869565	-6.304347826086956	4.0	3945.7875457875457	128.0	128.0	-9.606168223162678	-8.434047512298529	-18.040215735461206	484.5924359074159	485.8234078673611	-2.9923664122137406	7.755725190839694	0.48854961832061067	0.19040479760119938	0.8290854572713643	0.9145427286356821	
1.7104016024200327E12	2.782608695652174	-6.293478260869565	3.934782608695652	3922.344322344322	128.0	128.0	-9.621313765205594	-8.45388096021187	-18.075194725417465	484.5912819613555	485.8412940312975	-2.5801526717557253	8.13740458015267	0.6870229007633587	0.17091454272863568	0.8290854572713643	0.9115442278860569	
1.7104016024395647E12	2.782608695652174	-6.25	3.8804347826086953	3945.7875457875457	128.0	128.0	-9.613885237441687	-8.444216661955915	-18.058101899397602	484.5930128804461	485.84836195091754	-3.16030534351145	7.98473282442748	0.22900763358778625	0.18590704647676162	0.8320839580209894	0.9145427286356821	
1.7104016024590967E12	2.760869565217391	-6.239130434782608	3.902173913043478	3945.7875457875457	128.0	128.0	-9.60458154732961	-8.541364495916904	-18.145946043246514	484.59077710995405	486.01352048081407	-3.9847328244274807	8.320610687022901	0.7938931297709924	0.17691154422788605	0.8350824587706147	0.9055472263868065	
1.7104016024786284E12	2.760869565217391	-6.260869565217391	3.902173913043478	3945.7875457875457	128.0	128.0	-9.325398722338525	-7.580343792479491	-16.905742514818016	484.5921474209008	485.3352165621778	-4.885496183206107	7.404580152671755	0.5343511450381679	0.17991004497751123	0.815592203898051	0.9205397301349325	
1.7104016024981604E12	2.760869565217391	-6.25	4.032608695652174	3920.879120879121	128.0	128.0	-9.652542430465513	-8.368272586855003	-18.020815017320515	484.596258353741	485.51537639085967	-6.061068702290076	5.9541984732824424	0.6870229007633587	0.17691154422788605	0.8380809595202399	0.9205397301349325	
1.7104016025176924E12	2.7717391304347827	-6.326086956521739	3.782608695652174	3945.7875457875457	128.0	128.0	-9.580348680060945	-8.386302994048952	-17.966651674109897	484.592724393931	485.85542987053753	-8.198473282442748	5.7251908396946565	0.38167938931297707	0.18440779610194902	0.841079460269865	0.9175412293853074	
1.710401602537224E12	2.8260869565217392	-6.380434782608695	4.108695652173913	3945.7875457875457	128.0	128.0	-9.57342500369847	-8.419551064914591	-17.99297606861306	484.5926522723022	485.8844948869342	-5.083969465648854	5.679389312977099	0.41221374045801523	0.1664167916041979	0.8185907046476761	0.9115442278860569	
