"sep=	"
Shimmer_6D72_TimestampSync_Unix_CAL	Shimmer_6D72_Accel_LN_X_CAL	Shimmer_6D72_Accel_LN_Y_CAL	Shimmer_6D72_Accel_LN_Z_CAL	Shimmer_6D72_Battery_CAL	Shimmer_6D72_ECG_EMG_Status1_CAL	Shimmer_6D72_ECG_EMG_Status2_CAL	Shimmer_6D72_ECG_LA-RA_24BIT_CAL	Shimmer_6D72_ECG_LL-LA_24BIT_CAL	Shimmer_6D72_ECG_LL-RA_24BIT_CAL	Shimmer_6D72_ECG_RESP_24BIT_CAL	Shimmer_6D72_ECG_Vx-RL_24BIT_CAL	Shimmer_6D72_Gyro_X_CAL	Shimmer_6D72_Gyro_Y_CAL	Shimmer_6D72_Gyro_Z_CAL	Shimmer_6D72_Mag_X_CAL	Shimmer_6D72_Mag_Y_CAL	Shimmer_6D72_Mag_Z_CAL	
ms	m/(s^2)	m/(s^2)	m/(s^2)	mV	no_units	no_units	mV	mV	mV	mV	mV	deg/s	deg/s	deg/s	local_flux	local_flux	local_flux	
1.7104017039468718E12	2.869565217391304	-6.33695652173913	4.032608695652174	3941.391941391941	128.0	128.0	-8.875648245292693	-4.071842917423597	-12.94749116271629	484.17744805544	501.4043481831966	-4.030534351145038	7.969465648854961	0.13740458015267176	0.17841079460269865	0.8395802098950524	0.9145427286356821	
1.7104017039664038E12	2.8478260869565215	-6.33695652173913	4.043478260869565	3916.4835164835163	128.0	128.0	-8.858194811128952	-3.980248448878342	-12.838443260007294	484.17910685290184	501.406800318575	-3.6946564885496183	8.198473282442748	0.366412213740458	0.17691154422788605	0.848575712143928	0.9100449775112444	
1.7104017039859355E12	2.8152173913043477	-6.304347826086956	4.0	3944.322344322344	128.0	128.0	-8.837135295526421	-3.8824515202583694	-12.71958681578479	484.178746244758	501.3899959790702	-2.610687022900763	7.9541984732824424	0.22900763358778625	0.17691154422788605	0.8275862068965517	0.9280359820089955	
1.7104017040054675E12	2.8478260869565215	-6.282608695652174	3.9891304347826084	3920.879120879121	128.0	128.0	-8.827110389126586	-3.9814745165675305	-12.808584905694117	484.17499592006163	501.4154549140281	-3.6488549618320607	8.0	0.41221374045801523	0.1664167916041979	0.8320839580209894	0.9040479760119939	
1.7104017040249993E12	2.869565217391304	-6.25	3.9782608695652173	3945.7875457875457	128.0	128.0	-8.834322552004165	-4.086050878292427	-12.920373430296593	484.176798960781	501.4430053762204	-2.931297709923664	8.045801526717558	0.7175572519083969	0.1664167916041979	0.8365817091454273	0.9190404797601199	
1.7104017040445312E12	2.891304347826087	-6.282608695652174	3.9130434782608696	3944.322344322344	128.0	128.0	-8.893750774115418	-4.146633046464091	-13.040383820579509	484.18011655570467	501.48223954227444	-2.5343511450381677	9.251908396946565	0.38167938931297707	0.1829085457271364	0.8365817091454273	0.9145427286356821	
1.710401704064063E12	2.858695652173913	-6.282608695652174	3.902173913043478	3942.8571428571427	128.0	128.0	-8.866128190294289	-4.151032465819416	-13.017160656113704	484.17816927172777	501.49594265174187	-1.7404580152671756	9.862595419847327	0.33587786259541985	0.19790104947526235	0.8185907046476761	0.9145427286356821	
1.710401704083595E12	2.8152173913043477	-6.25	3.9239130434782608	3942.8571428571427	128.0	128.0	-8.883148894685375	-4.245079069743047	-13.128227964428422	484.17586137960694	501.63845499020283	-2.6412213740458013	9.740458015267174	0.2595419847328244	0.17391304347826086	0.8290854572713643	0.9325337331334332	
1.710401704103127E12	2.760869565217391	-6.304347826086956	3.967391304347826	3941.391941391941	128.0	128.0	-8.66548581904004	-3.939860336763898	-12.605346155803938	484.1711013521077	501.4909662593563	-3.3435114503816794	9.740458015267174	-0.07633587786259542	0.18440779610194902	0.8380809595202399	0.9025487256371814	
1.7104017041226587E12	2.8043478260869565	-6.304347826086956	3.9565217391304346	3942.8571428571427	128.0	128.0	-8.579516837539297	-2.8274563345261026	-11.406973172065399	484.1718225683955	500.5966580625365	-2.030534351145038	8.198473282442748	0.5190839694656488	0.1829085457271364	0.8365817091454273	0.9220389805097451	
1.7104017041421907E12	2.760869565217391	-6.282608695652174	4.021739130434782	3944.322344322344	128.0	128.0	-8.83338497083008	-4.1618507101357824	-12.995235680965862	484.17276014956957	501.4311053074724	-4.351145038167939	8.122137404580153	-0.2748091603053435	0.17091454272863568	0.8320839580209894	0.9190404797601199	
1.7104017041617224E12	2.8260869565217392	-6.184782608695652	3.9130434782608696	3920.879120879121	128.0	128.0	-8.810306049621827	-4.017895939099304	-12.828201988721132	484.1717504467667	501.51945430272275	-6.3206106870229	6.916030534351145	-0.061068702290076333	0.191904047976012	0.8380809595202399	0.9205397301349325	
1.7104017041812544E12	2.891304347826087	-6.33695652173913	3.9565217391304346	3944.322344322344	128.0	128.0	-8.823864915831676	-4.061385281251107	-12.885250197082783	484.173265000971	501.58082980881096	-2.3664122137404577	8.793893129770993	-0.030534351145038167	0.1829085457271364	0.8320839580209894	0.9145427286356821	
1.7104017042007861E12	2.6956521739130435	-6.163043478260869	3.967391304347826	3944.322344322344	128.0	128.0	-8.815643050151236	-4.084103594315481	-12.899746644466717	484.17340924422854	501.5827770927879	-1.0229007633587786	12.045801526717558	-0.015267175572519083	0.17691154422788605	0.8380809595202399	0.9100449775112444	
1.710401704220318E12	2.7717391304347827	-6.206521739130435	3.8478260869565215	3944.322344322344	128.0	128.0	-8.809945441477948	-4.065856822235206	-12.875802263713155	484.17456319028895	501.6101833117227	-7.297709923664121	8.931297709923664	0.24427480916030533	0.19040479760119938	0.8320839580209894	0.9085457271364318	
1.71040170423985E12	2.8152173913043477	-6.293478260869565	3.934782608695652	3945.7875457875457	128.0	128.0	-8.81420061757572	-4.034483913717736	-12.848684531293456	484.1711013521077	501.6189100288046	-6.091603053435114	7.038167938931298	-0.3969465648854962	0.17841079460269865	0.8440779610194902	0.9145427286356821	
1.7104017042593818E12	2.8478260869565215	-6.293478260869565	3.8804347826086953	3944.322344322344	128.0	128.0	-8.77770707341517	-4.015155317205824	-12.792862390620995	484.16929831138833	501.6378780171726	-4.748091603053435	8.595419847328245	-0.24427480916030533	0.15892053973013492	0.8320839580209894	0.9145427286356821	
1.7104017042789138E12	2.793478260869565	-6.282608695652174	3.902173913043478	3945.7875457875457	128.0	128.0	-8.783404682088458	-3.9589725683894823	-12.74237725047794	484.17038013582	501.67415519644686	-2.2748091603053435	8.885496183206106	-0.2748091603053435	0.1874062968515742	0.8305847076461769	0.9235382308845577	
1.7104017042984456E12	2.8043478260869565	-6.33695652173913	3.902173913043478	3944.322344322344	128.0	128.0	-8.78643379049704	-3.949813121534957	-12.736246912031998	484.1678558788128	501.70221051004063	-1.5877862595419847	7.801526717557252	-0.0916030534351145	0.1649175412293853	0.8305847076461769	0.9205397301349325	
1.7104017043179775E12	2.8369565217391304	-6.260869565217391	3.891304347826087	3922.344322344322	128.0	128.0	-8.771865221484331	-3.8964431162408726	-12.668308337725204	484.1669904192675	501.7329343238991	-0.12213740458015267	7.7251908396946565	0.183206106870229	0.17691154422788605	0.8275862068965517	0.9235382308845577	
1.7104017043375093E12	2.8260869565217392	-6.217391304347826	3.891304347826087	3945.7875457875457	128.0	128.0	-8.762561531372253	-3.880720601167752	-12.643282132540005	484.16533162180565	501.7274530801121	-0.10687022900763359	8.564885496183205	0.15267175572519084	0.191904047976012	0.8380809595202399	0.9280359820089955	
1.7104017043570413E12	2.793478260869565	-6.217391304347826	3.9239130434782608	3945.7875457875457	128.0	128.0	-8.779798600649668	-3.896370994612097	-12.676169595261765	484.16605283809344	501.66550060099377	-0.47328244274809156	8.50381679389313	0.5190839694656488	0.17841079460269865	0.8440779610194902	0.9190404797601199	
1.7104017043765732E12	2.8043478260869565	-6.282608695652174	3.9891304347826084	3944.322344322344	128.0	128.0	-8.817734577385734	-3.971016880395041	-12.788751457780775	484.1678558788128	501.6270597728562	-0.5954198473282443	7.816793893129771	0.38167938931297707	0.17991004497751123	0.841079460269865	0.9175412293853074	
1.710401704396105E12	2.793478260869565	-6.315217391304348	4.010869565217392	3944.322344322344	128.0	128.0	-8.842616539313381	-4.0447251850039	-12.887341724317281	484.1675673922977	501.6147269743356	-1.0076335877862594	6.824427480916031	0.9007633587786259	0.19040479760119938	0.8245877061469266	0.9085457271364318	
1.710401704415637E12	2.793478260869565	-6.293478260869565	4.119565217391305	3941.391941391941	128.0	128.0	-8.848314147986668	-4.066073187121534	-12.914387335108202	484.1709571088502	501.61263544710107	1.0534351145038168	6.534351145038167	0.5801526717557252	0.1664167916041979	0.8320839580209894	0.9220389805097451	
1.7104017044351687E12	2.8260869565217392	-6.206521739130435	3.9565217391304346	3944.322344322344	128.0	128.0	-8.850189310334839	-4.063332565228054	-12.913521875562893	484.16778375718405	501.6274925026289	0.9007633587786259	6.045801526717557	0.9923664122137404	0.17841079460269865	0.8365817091454273	0.8935532233883058	
1.7104017044547007E12	2.7717391304347827	-6.217391304347826	3.9239130434782608	3944.322344322344	128.0	128.0	-8.851631742910355	-4.051144009964945	-12.9027757528753	484.16915406813075	501.6471095856559	-1.5419847328244274	5.969465648854961	0.6717557251908397	0.18590704647676162	0.8365817091454273	0.9115442278860569	
1.7104017044742324E12	2.858695652173913	-6.239130434782608	4.0978260869565215	3920.879120879121	128.0	128.0	-8.83013949753517	-4.059293754016609	-12.889433251551779	484.1668461760099	501.657711465086	-2.916030534351145	6.290076335877862	0.7633587786259541	0.18590704647676162	0.8290854572713643	0.9010494752623688	
1.7104017044937644E12	2.880434782608696	-6.25	4.065217391304348	3944.322344322344	128.0	128.0	-8.848674756130547	-4.058644659357627	-12.907319415488175	484.1669904192675	501.68749769777037	-1.4961832061068703	6.702290076335878	1.0381679389312977	0.17391304347826086	0.8470764617691154	0.9010494752623688	
1.7104017045132964E12	2.8478260869565215	-6.326086956521739	4.130434782608695	3944.322344322344	128.0	128.0	-8.850117188706063	-4.023016574742385	-12.873133763448449	484.16677405438116	501.67321761527273	-2.3206106870229006	7.786259541984733	0.8549618320610687	0.1934032983508246	0.8320839580209894	0.9085457271364318	
1.7104017045328281E12	2.8369565217391304	-6.293478260869565	4.130434782608695	3944.322344322344	128.0	128.0	-8.840092282306228	-4.037152413982442	-12.87724469628867	484.1678558788128	501.6864879949675	-1.3587786259541985	7.801526717557252	1.0687022900763359	0.16941529235382308	0.8380809595202399	0.9235382308845577	
1.71040170455236E12	2.869565217391304	-6.239130434782608	4.076086956521739	3945.7875457875457	128.0	128.0	-8.85530994597792	-4.036142711179581	-12.891452657157501	484.1690098248732	501.6883631573157	-1.6030534351145038	7.572519083969465	1.129770992366412	0.1664167916041979	0.8365817091454273	0.9010494752623688	
1.7104017045718918E12	2.8152173913043477	-6.206521739130435	4.076086956521739	3944.322344322344	128.0	128.0	-8.853218418743422	-4.012631060198672	-12.865849478942094	484.1687934599869	501.6877140626567	-2.519083969465649	6.870229007633587	0.7175572519083969	0.17691154422788605	0.841079460269865	0.9175412293853074	
1.7104017045914238E12	2.8152173913043477	-6.228260869565217	4.108695652173913	3944.322344322344	128.0	128.0	-8.830716470565376	-3.9118771447988916	-12.742593615364267	484.16735102741137	501.6889401303459	-3.541984732824427	6.33587786259542	0.6870229007633587	0.18590704647676162	0.8395802098950524	0.9040479760119939	
1.7104017046109556E12	2.8478260869565215	-6.228260869565217	4.043478260869565	3944.322344322344	128.0	128.0	-8.808863617046311	-3.8305960691685765	-12.639459686214888	484.17016377093364	501.6477586803149	-3.9541984732824424	6.748091603053435	0.549618320610687	0.16941529235382308	0.8455772113943029	0.9130434782608695	
1.7104017046304875E12	2.8478260869565215	-6.239130434782608	4.065217391304348	3920.879120879121	128.0	128.0	-8.813407279659186	-3.967987771986458	-12.781395051645644	484.16742314904013	501.6748764127346	-3.7404580152671754	6.076335877862595	0.3969465648854962	0.17691154422788605	0.8350824587706147	0.8995502248875562	
1.7104017046500195E12	2.8478260869565215	-6.239130434782608	4.054347826086956	3945.7875457875457	128.0	128.0	-8.839875917419901	-4.054677969774959	-12.89455388719486	484.1715340818804	501.6987486718594	-3.4351145038167936	6.061068702290076	0.366412213740458	0.17391304347826086	0.8395802098950524	0.9190404797601199	
1.7104017046695513E12	2.8478260869565215	-6.25	3.967391304347826	3944.322344322344	128.0	128.0	-8.866921528210822	-4.068597444128686	-12.935518972339509	484.1695146762747	501.7186542414015	-2.9923664122137406	6.381679389312977	0.41221374045801523	0.17991004497751123	0.8350824587706147	0.9205397301349325	
1.7104017046890833E12	2.8260869565217392	-6.173913043478261	3.902173913043478	3944.322344322344	128.0	128.0	-8.874277934345953	-4.048908239472896	-12.923186173818848	484.1718225683955	501.7282464180287	-3.6030534351145036	6.3969465648854955	0.7175572519083969	0.17841079460269865	0.8290854572713643	0.9190404797601199	
1.710401704708615E12	2.8043478260869565	-6.206521739130435	3.9239130434782608	3945.7875457875457	128.0	128.0	-8.888413773586008	-4.1305499232470915	-13.018963696833099	484.17045225744874	501.80671475013673	-4.870229007633587	6.030534351145038	0.366412213740458	0.17391304347826086	0.8575712143928036	0.9115442278860569	
1.710401704728147E12	2.8260869565217392	-6.184782608695652	3.9239130434782608	3944.322344322344	128.0	128.0	-8.605696988784908	-3.145079987654684	-11.750776976439592	484.1679280004416	501.2353672069749	-5.465648854961832	5.465648854961832	0.6106870229007634	0.1634182908545727	0.8395802098950524	0.9085457271364318	
1.7104017047476787E12	2.8369565217391304	-6.184782608695652	3.967391304347826	3944.322344322344	128.0	128.0	-8.728664365847632	-3.0721650209623608	-11.800829386809992	484.17074074396385	501.0257817537525	-6.137404580152672	4.198473282442748	0.5343511450381679	0.18590704647676162	0.8290854572713643	0.9220389805097451	
1.7104017047672107E12	2.7717391304347827	-6.239130434782608	3.8260869565217392	3944.322344322344	128.0	128.0	-8.8237927942029	-3.946351283353721	-12.77014407755662	484.17131771699405	501.732645837384	-8.16793893129771	4.748091603053435	0.6564885496183206	0.1829085457271364	0.8440779610194902	0.9145427286356821	
1.7104017047867427E12	2.869565217391304	-6.239130434782608	4.043478260869565	3919.4139194139193	128.0	128.0	-8.85581479737935	-3.927455416614464	-12.783270213993815	484.17189469002426	501.76755270571147	-7.66412213740458	2.5801526717557253	0.564885496183206	0.1829085457271364	0.8365817091454273	0.9085457271364318	
1.7104017048062744E12	2.8478260869565215	-6.206521739130435	3.8152173913043477	3945.7875457875457	128.0	128.0	-8.845285039578085	-3.940148823279003	-12.785433862857088	484.17514016331916	501.8001516819181	-2.595419847328244	6.152671755725191	0.7633587786259541	0.17091454272863568	0.8365817091454273	0.9040479760119939	
1.7104017048258064E12	2.8260869565217392	-6.08695652173913	3.858695652173913	3944.322344322344	128.0	128.0	-8.846511107267274	-3.9447646075206535	-12.791275714787927	484.175500771463	501.80635414199287	-5.633587786259541	8.625954198473282	1.4351145038167938	0.18440779610194902	0.8380809595202399	0.9175412293853074	
1.7104017048453381E12	2.8260869565217392	-6.195652173913043	3.8260869565217392	3942.8571428571427	128.0	128.0	-8.834106187117838	-3.9162044425254408	-12.750310629643279	484.1723995414257	501.79113647832116	-9.603053435114504	6.1679389312977095	1.4351145038167938	0.1829085457271364	0.8320839580209894	0.9085457271364318	
1.71040170486487E12	2.869565217391304	-6.260869565217391	3.9239130434782608	3944.322344322344	128.0	128.0	-8.820619442536765	-3.8885818587043115	-12.709201301241077	484.17528440657674	501.7886843429428	-10.259541984732824	6.381679389312977	1.0687022900763359	0.17991004497751123	0.8305847076461769	0.9025487256371814	
1.7104017048844019E12	2.858695652173913	-6.304347826086956	3.8369565217391304	3944.322344322344	128.0	128.0	-8.81917700996125	-3.86103139651196	-12.68020840647321	484.1731928793422	501.7857994777918	-8.977099236641221	6.519083969465648	1.0076335877862594	0.19040479760119938	0.8320839580209894	0.9115442278860569	
1.7104017049039338E12	2.858695652173913	-6.380434782608695	3.934782608695652	3942.8571428571427	128.0	128.0	-8.801651454168733	-3.842712502802909	-12.644363956971642	484.17189469002426	501.79993531703184	-6.473282442748092	6.473282442748092	1.2519083969465647	0.1634182908545727	0.8365817091454273	0.9220389805097451	
1.7104017049234656E12	2.891304347826087	-6.315217391304348	3.9130434782608696	3944.322344322344	128.0	128.0	-8.800425386479544	-3.801747417658259	-12.602172804137803	484.1742025821451	501.80959961528777	-5.0534351145038165	5.9541984732824424	1.1908396946564885	0.17841079460269865	0.8440779610194902	0.9085457271364318	
1.7104017049429976E12	2.869565217391304	-6.271739130434782	3.934782608695652	3919.4139194139193	128.0	128.0	-8.79314110197319	-3.762945981376884	-12.556087083350073	484.17189469002426	501.82308635986885	-4.3206106870229	5.984732824427481	1.0687022900763359	0.17091454272863568	0.8320839580209894	0.9145427286356821	
1.7104017049625295E12	2.869565217391304	-6.239130434782608	3.8804347826086953	3945.7875457875457	128.0	128.0	-8.79912719716158	-3.7415258576304744	-12.540653054792054	484.17276014956957	501.78464553173137	-3.7557251908396947	6.702290076335878	1.1755725190839694	0.1829085457271364	0.8365817091454273	0.9040479760119939	
1.7104017049820613E12	2.8478260869565215	-6.293478260869565	3.869565217391304	3944.322344322344	128.0	128.0	-8.85444448643261	-3.8396112727655503	-12.69405575919816	484.17131771699405	501.7041577940176	-4.534351145038168	6.213740458015267	0.549618320610687	0.1829085457271364	0.8365817091454273	0.9145427286356821	
1.7104017050015933E12	2.880434782608696	-6.326086956521739	3.9130434782608696	3942.8571428571427	128.0	128.0	-8.867859109384908	-3.9409421611955366	-12.808801270580444	484.1723995414257	501.66968365546273	-4.045801526717557	6.473282442748092	0.6259541984732824	0.19040479760119938	0.8320839580209894	0.9040479760119939	
1.710401705021125E12	2.858695652173913	-6.358695652173913	3.869565217391304	3944.322344322344	128.0	128.0	-8.874350055974729	-3.987172125240818	-12.861522181215546	484.1738419740012	501.660596330237	-3.114503816793893	7.267175572519084	0.5343511450381679	0.1829085457271364	0.8290854572713643	0.9250374812593702	
1.710401705040657E12	2.869565217391304	-6.315217391304348	4.010869565217392	3944.322344322344	128.0	128.0	-8.895193206690934	-4.017030479553995	-12.912223686244928	484.17369773074364	501.65980299232046	-0.030534351145038167	7.49618320610687	0.21374045801526717	0.17391304347826086	0.8365817091454273	0.9085457271364318	
1.7104017050601887E12	2.9456521739130435	-6.206521739130435	3.8369565217391304	3942.8571428571427	128.0	128.0	-8.893245922713986	-4.015588046978481	-12.908833969692466	484.17614986612205	501.65179749152634	1.0534351145038168	8.106870229007633	0.6106870229007634	0.19490254872563717	0.8380809595202399	0.8950524737631184	
1.7104017050797207E12	2.75	-6.293478260869565	3.75	3944.322344322344	128.0	128.0	-8.875215515520038	-4.006572843381507	-12.881788358901545	484.17845775824287	501.6417725851265	-1.1450381679389312	7.511450381679389	0.6564885496183206	0.191904047976012	0.8350824587706147	0.9100449775112444	
1.7104017050992527E12	2.8369565217391304	-6.293478260869565	4.043478260869565	3922.344322344322	128.0	128.0	-8.88769255729825	-3.999072193988825	-12.886764751287075	484.17997231244715	501.63448830062015	-0.47328244274809156	6.809160305343511	0.366412213740458	0.17691154422788605	0.8350824587706147	0.9100449775112444	
1.7104017051187844E12	2.8152173913043477	-6.260869565217391	3.9130434782608696	3944.322344322344	128.0	128.0	-8.87759552926964	-4.0146504658043956	-12.892245995074035	484.17730381218246	501.64927323451917	0.8549618320610687	5.480916030534351	0.5954198473282443	0.17841079460269865	0.8290854572713643	0.9145427286356821	
1.7104017051383164E12	2.8260869565217392	-6.282608695652174	3.9456521739130435	3944.322344322344	128.0	128.0	-8.872979745027989	-4.025180223605661	-12.89815996863365	484.1788904880155	501.64198895001283	-0.4427480916030534	6.366412213740458	0.916030534351145	0.191904047976012	0.8350824587706147	0.9130434782608695	
1.7104017051578481E12	2.858695652173913	-6.260869565217391	3.9130434782608696	3945.7875457875457	128.0	128.0	-8.862810595370602	-4.037801508641424	-12.900612104012026	484.1797559475608	501.63052161103747	-1.114503816793893	7.480916030534351	1.648854961832061	0.18590704647676162	0.8320839580209894	0.9040479760119939	
1.7104017051773801E12	2.869565217391304	-6.304347826086956	4.0	3945.7875457875457	128.0	128.0	-8.865695460521634	-3.9550780004355914	-12.820773460957225	484.1797559475608	501.6153760689946	-0.6412213740458015	6.793893129770992	1.3587786259541985	0.191904047976012	0.8350824587706147	0.9175412293853074	
1.7104017051969119E12	2.880434782608696	-6.293478260869565	4.065217391304348	3942.8571428571427	128.0	128.0	-8.860935433022432	-3.912670482715427	-12.773605915737859	484.1819195964241	501.60109598649694	-1.3893129770992365	5.343511450381679	0.916030534351145	0.17841079460269865	0.8320839580209894	0.9115442278860569	
1.7104017052164438E12	2.869565217391304	-6.3478260869565215	4.032608695652174	3944.322344322344	128.0	128.0	-8.83388982223151	-3.858579261133583	-12.692469083365093	484.18379475877225	501.55710179294374	-0.41221374045801523	5.145038167938931	1.297709923664122	0.1874062968515742	0.8455772113943029	0.9205397301349325	
1.7104017052359758E12	2.9130434782608696	-6.293478260869565	4.021739130434782	3944.322344322344	128.0	128.0	-8.851343256395252	-3.987532733384697	-12.838875989779948	484.18494870483266	501.5665497263134	-0.3053435114503817	4.458015267175572	1.3129770992366412	0.17991004497751123	0.8230884557721139	0.9130434782608695	
1.7104017052555076E12	2.9782608695652173	-6.293478260869565	4.021739130434782	3920.879120879121	128.0	128.0	-8.918704857671841	-4.106533420864752	-13.025238278536593	484.18559779949163	501.5825607279016	-1.7862595419847327	6.244274809160305	1.4198473282442747	0.17391304347826086	0.8320839580209894	0.9040479760119939	
1.7104017052750396E12	2.9130434782608696	-6.33695652173913	4.021739130434782	3945.7875457875457	128.0	128.0	-8.906011451007302	-4.1319923558226055	-13.038003806829908	484.18552567786287	501.57787282203117	-1.7099236641221374	7.893129770992366	1.66412213740458	0.17241379310344826	0.8230884557721139	0.9175412293853074	
1.7104017052945713E12	2.869565217391304	-6.282608695652174	4.010869565217392	3944.322344322344	128.0	128.0	-8.900025355818912	-4.1632210210825225	-13.063246376901434	484.18588628600673	501.6039087300192	-1.8473282442748091	7.770992366412213	1.3282442748091603	0.15592203898050974	0.8395802098950524	0.9010494752623688	
1.7104017053141033E12	2.880434782608696	-6.260869565217391	3.9782608695652173	3944.322344322344	128.0	128.0	-8.893101679456434	-4.2955642098861	-13.188665889342534	484.1848765832039	501.7164905925382	-0.8854961832061068	7.923664122137405	1.8931297709923662	0.18590704647676162	0.8320839580209894	0.9190404797601199	
1.710401705333635E12	2.869565217391304	-6.228260869565217	4.0	3944.322344322344	128.0	128.0	-8.64334447900587	-3.3387265609176833	-11.982071039923554	484.1847323399463	500.9789026950482	-0.3511450381679389	7.893129770992366	1.618320610687023	0.19040479760119938	0.8290854572713643	0.9040479760119939	
1.710401705353167E12	2.891304347826087	-6.195652173913043	4.0978260869565215	3944.322344322344	128.0	128.0	-8.940846197706009	-4.120452895218479	-13.061299092924488	484.18646325903694	501.189353607816	-0.7175572519083969	7.297709923664121	2.0	0.18440779610194902	0.8455772113943029	0.9130434782608695	
1.710401705372699E12	2.858695652173913	-6.228260869565217	3.8478260869565215	3942.8571428571427	128.0	128.0	-8.859204513931813	-4.087421189239167	-12.94662570317098	484.1857420427492	501.51108819378476	-3.5877862595419847	7.099236641221374	2.4885496183206106	0.17841079460269865	0.8215892053973013	0.9040479760119939	
1.7104017053922307E12	2.9239130434782608	-6.391304347826087	4.326086956521739	3944.322344322344	128.0	128.0	-8.881201610708429	-4.124419584801149	-13.005621195509578	484.1868959888096	501.5677036723738	-4.2748091603053435	6.900763358778626	2.183206106870229	0.19940029985007496	0.8350824587706147	0.9055472263868065	
1.7104017054117627E12	2.9130434782608696	-6.33695652173913	4.065217391304348	3919.4139194139193	128.0	128.0	-8.866921528210822	-4.126366868778094	-12.993288396988916	484.18595840763555	501.5715261186989	-0.6259541984732824	7.450381679389313	1.816793893129771	0.1934032983508246	0.8500749625187406	0.9085457271364318	
1.7104017054312944E12	2.793478260869565	-6.228260869565217	4.010869565217392	3945.7875457875457	128.0	128.0	-8.85343478362975	-4.134516612829758	-12.987951396459508	484.1882662997564	501.5765746327132	-2.763358778625954	10.274809160305344	1.7862595419847327	0.17241379310344826	0.8275862068965517	0.9175412293853074	
1.7104017054508264E12	2.75	-6.326086956521739	3.9891304347826084	3944.322344322344	128.0	128.0	-8.857617838098745	-4.114683164916416	-12.972301003015161	484.1868959888096	501.59301836407406	-6.305343511450381	8.351145038167939	1.7557251908396947	0.1619190404797601	0.8305847076461769	0.9100449775112444	
1.7104017054703582E12	2.8260869565217392	-6.293478260869565	4.076086956521739	3944.322344322344	128.0	128.0	-8.85480509457649	-4.081146607535674	-12.935951702112163	484.18732871858225	501.59842748623225	-3.2213740458015265	7.007633587786259	1.6335877862595418	0.17391304347826086	0.8440779610194902	0.9115442278860569	
1.7104017054898901E12	2.8478260869565215	-6.25	4.0	3944.322344322344	128.0	128.0	-8.8511990131377	-4.038162116785303	-12.889361129923003	484.18393900202983	501.6313870705828	-1.3435114503816794	9.022900763358779	1.9389312977099236	0.17241379310344826	0.8275862068965517	0.9205397301349325	
1.710401705509422E12	2.793478260869565	-6.271739130434782	4.010869565217392	3945.7875457875457	128.0	128.0	-8.832952241057425	-4.036503319323458	-12.869455560380883	484.18264081271184	501.6563411541392	0.5343511450381679	9.435114503816793	1.8625954198473282	0.17091454272863568	0.8440779610194902	0.9010494752623688	
1.7104017055289539E12	2.7717391304347827	-6.260869565217391	4.032608695652174	3944.322344322344	128.0	128.0	-8.819032766703698	-3.985008476377544	-12.804041243081242	484.18083777199246	501.6826655486424	1.9236641221374045	8.106870229007633	1.5877862595419847	0.1874062968515742	0.841079460269865	0.9235382308845577	
1.7104017055484858E12	2.782608695652174	-6.239130434782608	3.9782608695652173	3944.322344322344	128.0	128.0	-8.813190914772859	-3.9498852431637346	-12.763076157936593	484.17925109615936	501.6799970483777	3.3740458015267176	7.312977099236641	1.7709923664122136	0.19940029985007496	0.8380809595202399	0.9055472263868065	
1.7104017055680176E12	2.7717391304347827	-6.260869565217391	4.021739130434782	3915.0183150183148	128.0	128.0	-8.810810901023258	-3.905241954951519	-12.716052855974777	484.18199171805287	501.6161694069111	4.442748091603053	7.1603053435114505	1.8778625954198473	0.17841079460269865	0.8290854572713643	0.9115442278860569	
1.7104017055875496E12	2.8043478260869565	-6.293478260869565	4.08695652173913	3945.7875457875457	128.0	128.0	-8.842832904199708	-4.004841924290886	-12.847674828490595	484.1836505155147	501.5542169277927	4.549618320610687	7.450381679389313	1.8015267175572518	0.18440779610194902	0.8275862068965517	0.9100449775112444	
1.7104017056070813E12	2.8043478260869565	-6.239130434782608	4.141304347826087	3944.322344322344	128.0	128.0	-8.862738473741826	-4.106966150637406	-12.969704624379233	484.18170323153777	501.5214015866997	4.549618320610687	7.679389312977099	1.7709923664122136	0.19790104947526235	0.8395802098950524	0.9250374812593702	
1.7104017056266133E12	2.8043478260869565	-6.260869565217391	4.076086956521739	3942.8571428571427	128.0	128.0	-8.865334852377755	-4.170577427217655	-13.03591227959541	484.1806935287349	501.49320202984836	3.6030534351145036	7.709923664122137	2.045801526717557	0.18440779610194902	0.8380809595202399	0.9025487256371814	
1.7104017056461453E12	2.782608695652174	-6.271739130434782	4.25	3944.322344322344	128.0	128.0	-8.863459690029584	-4.179159901041974	-13.042619591071558	484.18509294809024	501.50243359833166	4.0	8.412213740458014	1.618320610687023	0.17091454272863568	0.8395802098950524	0.9190404797601199	
1.710401705665677E12	2.8260869565217392	-6.217391304347826	4.119565217391305	3944.322344322344	128.0	128.0	-8.850982648251373	-4.1378342077534445	-12.988816856004817	484.1833620289996	501.50337117950573	3.1755725190839694	8.045801526717558	2.0	0.1829085457271364	0.8500749625187406	0.8935532233883058	
1.710401705685209E12	2.760869565217391	-6.315217391304348	4.271739130434782	3942.8571428571427	128.0	128.0	-8.829562524504963	-4.148075479039607	-12.97763800354457	484.1835783938859	501.5016402604151	-0.21374045801526717	9.84732824427481	1.83206106870229	0.1829085457271364	0.8395802098950524	0.9040479760119939	
1.7104017057047407E12	2.793478260869565	-6.369565217391304	4.315217391304348	3944.322344322344	128.0	128.0	-8.826894024240259	-4.135598437261395	-12.962492461501654	484.1840111236586	501.5218343164724	1.114503816793893	8.290076335877862	1.8015267175572518	0.17091454272863568	0.8365817091454273	0.896551724137931	
1.7104017057242727E12	2.793478260869565	-6.33695652173913	4.315217391304348	3920.879120879121	128.0	128.0	-8.823720672574124	-4.12420321991482	-12.947923892488944	484.1830735424845	501.51152092355744	1.984732824427481	8.67175572519084	1.2519083969465647	0.17991004497751123	0.8275862068965517	0.9130434782608695	
1.7104017057438044E12	2.7282608695652173	-6.282608695652174	4.271739130434782	3945.7875457875457	128.0	128.0	-8.841318349995417	-4.128097787868713	-12.96941613786413	484.1860305292643	501.53322953381894	1.7099236641221374	9.404580152671755	0.9465648854961831	0.1829085457271364	0.8320839580209894	0.9085457271364318	
1.7104017057633364E12	2.717391304347826	-6.206521739130435	4.25	3944.322344322344	128.0	128.0	-8.830211619163945	-4.1446857624871445	-12.97489738165109	484.18790569161246	501.52031976226806	1.66412213740458	8.381679389312977	1.6030534351145038	0.17991004497751123	0.841079460269865	0.9025487256371814	
1.7104017057828684E12	2.7391304347826084	-6.173913043478261	4.239130434782608	3941.391941391941	128.0	128.0	-8.829923132648842	-4.102855217797186	-12.932778350446029	484.1875450834686	501.5154154915113	-0.13740458015267176	8.106870229007633	1.5267175572519083	0.17991004497751123	0.841079460269865	0.9055472263868065	
1.7104017058024001E12	2.7282608695652173	-6.184782608695652	4.304347826086956	3944.322344322344	128.0	128.0	-8.810883022652034	-4.004409194518232	-12.815292217170265	484.18595840763555	501.5082033286337	-1.4809160305343512	7.893129770992366	1.297709923664122	0.17241379310344826	0.8530734632683658	0.9055472263868065	
1.7104017058219321E12	2.684782608695652	-6.195652173913043	4.293478260869565	3942.8571428571427	128.0	128.0	-8.792131399170328	-3.9510391892241454	-12.743170588394474	484.1875450834686	501.48252802878955	-2.3664122137404577	7.312977099236641	1.4198473282442747	0.1874062968515742	0.8455772113943029	0.9130434782608695	
1.7104017058414639E12	2.7391304347826084	-6.217391304347826	4.315217391304348	3920.879120879121	128.0	128.0	-8.814272739204496	-4.1378342077534445	-12.95210694695794	484.1876893267262	501.5296234523802	-2.4732824427480917	7.404580152671755	1.1755725190839694	0.18590704647676162	0.8395802098950524	0.9085457271364318	
1.7104017058609958E12	2.7282608695652173	-6.228260869565217	4.304347826086956	3944.322344322344	128.0	128.0	-8.845573526093188	-4.237434177092812	-13.083007703186	484.1875450834686	501.53625864222755	-2.8244274809160306	6.870229007633587	1.3587786259541985	0.17691154422788605	0.841079460269865	0.8950524737631184	
1.7104017058805276E12	2.75	-6.271739130434782	4.326086956521739	3920.879120879121	128.0	128.0	-8.865046365862652	-4.265561612315372	-13.130607978178023	484.185814164378	501.5620060637005	-2.6412213740458013	6.99236641221374	1.2671755725190839	0.1829085457271364	0.8470764617691154	0.9040479760119939	
1.7104017059000596E12	2.75	-6.25	4.271739130434782	3945.7875457875457	128.0	128.0	-8.876946434610657	-4.27998593807053	-13.156932372681187	484.18848266464266	501.5752043217665	-2.396946564885496	7.709923664122137	1.0687022900763359	0.1829085457271364	0.8395802098950524	0.9145427286356821	
1.7104017059195913E12	2.7391304347826084	-6.228260869565217	4.239130434782608	3944.322344322344	128.0	128.0	-8.892091976653573	-4.438148669975838	-13.330240646629411	484.1889875160441	501.69088741432284	-2.549618320610687	7.603053435114504	0.7022900763358778	0.17091454272863568	0.8365817091454273	0.9085457271364318	
1.7104017059391233E12	2.7391304347826084	-6.173913043478261	4.228260869565217	3942.8571428571427	128.0	128.0	-8.579372594281745	-3.1768135043160335	-11.756186098597778	484.1876893267262	500.7787651751954	-3.6488549618320607	7.7251908396946565	1.114503816793893	0.18590704647676162	0.8470764617691154	0.9115442278860569	
1.7104017059586553E12	2.6956521739130435	-6.195652173913043	4.3478260869565215	3945.7875457875457	128.0	128.0	-8.81333515803041	-3.828071812161424	-12.641406970191834	484.1905741918772	500.9426976374028	-3.7251908396946565	6.946564885496183	1.2213740458015268	0.1874062968515742	0.8350824587706147	0.9100449775112444	
1.710401705978187E12	2.7391304347826084	-6.195652173913043	4.0978260869565215	3944.322344322344	128.0	128.0	-8.838938336245816	-4.222793486451327	-13.061731822697142	484.1885547862715	501.558616347148	-5.114503816793893	6.748091603053435	0.7633587786259541	0.18590704647676162	0.8470764617691154	0.9085457271364318	
1.710401705997719E12	2.7065217391304346	-6.315217391304348	4.467391304347826	3944.322344322344	128.0	128.0	-8.84247229605583	-4.26967254515559	-13.11214484121142	484.18494870483266	501.5971292969143	-6.106870229007633	5.541984732824427	0.8091603053435115	0.1829085457271364	0.8365817091454273	0.9190404797601199	
1.7104017060172507E12	2.782608695652174	-6.260869565217391	4.271739130434782	3931.135531135531	128.0	128.0	-8.835764984579681	-4.275370153828877	-13.111135138408558	484.185165069719	501.63275738152953	-2.427480916030534	5.0534351145038165	0.6870229007633587	0.1829085457271364	0.8365817091454273	0.9010494752623688	
1.7104017060367827E12	2.717391304347826	-6.119565217391304	4.08695652173913	3919.4139194139193	128.0	128.0	-8.816580631325321	-4.307536400262881	-13.124117031588202	484.188699029529	501.6579999516011	-2.1068702290076335	8.381679389312977	0.5801526717557252	0.17841079460269865	0.8395802098950524	0.896551724137931	
1.7104017060563145E12	2.652173913043478	-6.228260869565217	4.217391304347826	3945.7875457875457	128.0	128.0	-8.797973251101167	-4.277966532464806	-13.075939783565973	484.18862690790024	501.6692509256901	-7.129770992366412	6.931297709923664	0.8244274809160305	0.18590704647676162	0.8215892053973013	0.896551724137931	
1.7104017060758464E12	2.7282608695652173	-6.293478260869565	4.271739130434782	3944.322344322344	128.0	128.0	-8.802949643486697	-4.249550610727145	-13.052500254213841	484.18877115115777	501.67502065599217	-6.061068702290076	3.7709923664122136	0.6412213740458015	0.1634182908545727	0.8365817091454273	0.9115442278860569	
1.7104017060953784E12	2.793478260869565	-6.282608695652174	4.25	3939.9267399267396	128.0	128.0	-8.79826173761627	-4.208874012097599	-13.00713574971387	484.1860305292643	501.6876419410279	-4.625954198473282	4.473282442748092	0.13740458015267176	0.18440779610194902	0.8275862068965517	0.9055472263868065	
1.7104017061149102E12	2.7717391304347827	-6.293478260869565	4.25	3944.322344322344	128.0	128.0	-8.80136296765363	-4.165817399718451	-12.96718036737208	484.18494870483266	501.741011946322	-4.198473282442748	6.213740458015267	0.0916030534351145	0.1934032983508246	0.8395802098950524	0.9040479760119939	
1.7104017061344421E12	2.7391304347826084	-6.260869565217391	4.228260869565217	3935.531135531135	128.0	128.0	-8.794799899435032	-4.1728131977097025	-12.967613097144735	484.1825686910831	501.76769694896905	-3.3893129770992365	6.0	0.2900763358778626	0.17091454272863568	0.8440779610194902	0.8935532233883058	
1.7104017061539739E12	2.75	-6.217391304347826	4.163043478260869	3942.8571428571427	128.0	128.0	-8.786866520269696	-4.110067380674765	-12.896933900944461	484.18141474502266	501.7794527744595	-3.068702290076336	5.175572519083969	0.24427480916030533	0.17091454272863568	0.8365817091454273	0.9115442278860569	
1.7104017061735059E12	2.717391304347826	-6.184782608695652	4.1521739130434785	3944.322344322344	128.0	128.0	-8.790616844966037	-4.0942727439728674	-12.884889588938904	484.1796117043033	501.7430313519277	-3.801526717557252	5.7251908396946565	0.3511450381679389	0.1874062968515742	0.8455772113943029	0.8920539730134932	
1.7104017061930376E12	2.760869565217391	-6.25	4.228260869565217	3919.4139194139193	128.0	128.0	-8.83562074132213	-4.17288531933848	-13.00850606066061	484.1837226371435	501.6632648305017	-4.030534351145038	5.709923664122138	0.4580152671755725	0.17841079460269865	0.8245877061469266	0.9190404797601199	
1.7104017062125696E12	2.793478260869565	-6.260869565217391	4.25	3945.7875457875457	128.0	128.0	-8.864180906317342	-4.263397963452098	-13.12757886976944	484.18235232619674	501.63492103039283	-3.3587786259541983	5.984732824427481	0.15267175572519084	0.17241379310344826	0.8455772113943029	0.9280359820089955	
1.7104017062321016E12	2.793478260869565	-6.293478260869565	4.130434782608695	3944.322344322344	128.0	128.0	-8.863171203514481	-4.284024749281974	-13.147195952796455	484.1835783938859	501.6246076374779	-2.183206106870229	6.366412213740458	0.0	0.17091454272863568	0.8440779610194902	0.9040479760119939	
1.7104017062516333E12	2.793478260869565	-6.271739130434782	4.282608695652174	3939.9267399267396	128.0	128.0	-8.875431880406365	-4.294266020568136	-13.169697900974501	484.1836505155147	501.63946469300566	-0.2595419847328244	7.511450381679389	0.16793893129770993	0.1649175412293853	0.8380809595202399	0.9100449775112444	
1.7104017062711653E12	2.8043478260869565	-6.163043478260869	4.141304347826087	3944.322344322344	128.0	128.0	-8.876008853436572	-4.2748653024274486	-13.15087415586402	484.18235232619674	501.64552290982283	2.045801526717557	6.7328244274809155	0.366412213740458	0.1634182908545727	0.8215892053973013	0.9085457271364318	
1.710401706290697E12	2.8043478260869565	-6.239130434782608	4.33695652173913	3944.322344322344	128.0	128.0	-8.863820298173463	-4.257195503377378	-13.121015801550842	484.18480446157514	501.6516532482688	1.3282442748091603	7.541984732824427	-0.1984732824427481	0.18440779610194902	0.8380809595202399	0.9100449775112444	
1.710401706310229E12	2.8478260869565215	-6.239130434782608	4.304347826086956	3926.7399267399264	128.0	128.0	-8.859853608590795	-4.247314840235095	-13.10716844882589	484.18480446157514	501.6617502762974	2.4427480916030535	7.343511450381679	-0.3969465648854962	0.16941529235382308	0.8380809595202399	0.9130434782608695	
1.7104017063297607E12	2.880434782608696	-6.25	4.358695652173913	3944.322344322344	128.0	128.0	-8.849612337304633	-4.244213610197736	-13.093825947502369	484.1804771638486	501.67653521019645	2.610687022900763	8.48854961832061	-1.083969465648855	0.17841079460269865	0.8245877061469266	0.9085457271364318	
1.7104017063492927E12	2.8478260869565215	-6.282608695652174	4.369565217391305	3920.879120879121	128.0	128.0	-8.87586461017902	-4.215653445202523	-13.091518055381544	484.1796117043033	501.66391392516067	2.564885496183206	10.900763358778626	-1.0381679389312977	0.17241379310344826	0.8380809595202399	0.9055472263868065	
1.7104017063688247E12	2.7717391304347827	-6.25	4.380434782608695	3945.7875457875457	128.0	128.0	-8.858194811128952	-4.210172201415563	-13.068367012544515	484.1801886773335	501.6591538976615	3.4045801526717554	10.534351145038167	-1.3282442748091603	0.1829085457271364	0.8470764617691154	0.9145427286356821	
1.7104017063883564E12	2.760869565217391	-6.239130434782608	4.423913043478261	3945.7875457875457	128.0	128.0	-8.863748176544687	-4.174544116800323	-13.03829229334501	484.18083777199246	501.6618223979262	2.916030534351145	9.908396946564885	-1.3129770992366412	0.191904047976012	0.8350824587706147	0.9055472263868065	
1.7104017064078884E12	2.7717391304347827	-6.282608695652174	4.467391304347826	3941.391941391941	128.0	128.0	-8.860214216734674	-4.061962254281314	-12.922176471015987	484.17600562286447	501.6600193572068	1.2671755725190839	9.190839694656487	-0.9007633587786259	0.1934032983508246	0.8470764617691154	0.9040479760119939	
1.7104017064274202E12	2.8260869565217392	-6.260869565217391	4.554347826086956	3917.948717948718	128.0	128.0	-8.824153402346779	-3.92269538911526	-12.746848791462039	484.1804050422198	501.6222276237283	0.2900763358778626	9.068702290076336	-0.5038167938931297	0.1829085457271364	0.8440779610194902	0.9295352323838081	
1.7104017064469521E12	2.793478260869565	-6.228260869565217	4.489130434782608	3945.7875457875457	128.0	128.0	-8.798045372729943	-4.01883352027339	-12.816878893003333	484.17925109615936	501.62742038100015	-0.5954198473282443	9.709923664122137	-0.549618320610687	0.17391304347826086	0.8545727136431783	0.9040479760119939	
1.710401706466484E12	2.760869565217391	-6.206521739130435	4.434782608695652	3944.322344322344	128.0	128.0	-8.868940933816544	-4.141800897336115	-13.010741831152659	484.17752017706874	501.6677363714858	-0.8702290076335878	8.15267175572519	-0.7633587786259541	0.17391304347826086	0.8395802098950524	0.9040479760119939	
1.7104017064860159E12	2.793478260869565	-6.173913043478261	4.413043478260869	3944.322344322344	128.0	128.0	-8.897573220440535	-4.149373668357571	-13.046946888798105	484.175500771463	501.67321761527273	-1.083969465648855	7.358778625954198	-0.7633587786259541	0.17991004497751123	0.8590704647676162	0.9025487256371814	
1.7104017065055479E12	2.8260869565217392	-6.141304347826087	4.380434782608695	3922.344322344322	128.0	128.0	-8.88185070536741	-4.164374967142937	-13.046225672510348	484.178746244758	501.6757418722799	-2.1374045801526718	7.358778625954198	-0.6259541984732824	0.1829085457271364	0.8395802098950524	0.9040479760119939	
1.7104017065250796E12	2.858695652173913	-6.217391304347826	4.445652173913043	3945.7875457875457	128.0	128.0	-8.885528908434976	-4.241112380160379	-13.126641288595355	484.17982806918957	501.79207405949523	-3.236641221374046	8.244274809160306	-0.1984732824427481	0.18440779610194902	0.848575712143928	0.9130434782608695	
1.7104017065446116E12	2.858695652173913	-6.228260869565217	4.489130434782608	3942.8571428571427	128.0	128.0	-8.750012367965265	-4.117423786809896	-12.867436154775161	484.17528440657674	501.76315328635616	-3.5114503816793894	9.389312977099236	-0.1984732824427481	0.1829085457271364	0.8440779610194902	0.9010494752623688	
1.7104017065641433E12	2.858695652173913	-6.228260869565217	4.434782608695652	3938.461538461538	128.0	128.0	-8.710633958653684	-3.0512497486173817	-11.761883707271066	484.17586137960694	500.85362742586466	-3.099236641221374	9.786259541984732	-0.22900763358778625	0.17091454272863568	0.8440779610194902	0.9220389805097451	
1.7104017065836753E12	2.8369565217391304	-6.228260869565217	4.413043478260869	3944.322344322344	128.0	128.0	-8.881562218852308	-4.104009163857599	-12.985571382709907	484.17925109615936	501.56691033445725	-3.83206106870229	8.67175572519084	-0.732824427480916	0.1634182908545727	0.8395802098950524	0.9085457271364318	
1.710401706603207E12	2.8260869565217392	-6.217391304347826	4.434782608695652	3944.322344322344	128.0	128.0	-8.848891121016875	-3.990633963422056	-12.83952508443893	484.1783135149853	501.72839066128626	-5.633587786259541	7.770992366412213	-0.41221374045801523	0.1649175412293853	0.8455772113943029	0.9100449775112444	
1.710401706622739E12	2.858695652173913	-6.293478260869565	4.467391304347826	3942.8571428571427	128.0	128.0	-8.848025661471565	-3.9983509777010653	-12.84637663917263	484.17694320403854	501.757095069539	-6.015267175572519	8.885496183206106	-0.4580152671755725	0.15442278860569714	0.841079460269865	0.9100449775112444	
1.710401706642271E12	2.8043478260869565	-6.163043478260869	4.4021739130434785	3944.322344322344	128.0	128.0	-8.837351660412748	-3.9890472875889884	-12.826398948001737	484.1733371225998	501.7978437897973	-3.8625954198473282	10.106870229007633	-0.5801526717557252	0.17241379310344826	0.8530734632683658	0.9130434782608695	
1.7104017066618027E12	2.782608695652174	-6.119565217391304	4.33695652173913	3919.4139194139193	128.0	128.0	-8.820835807423093	-3.97959935421936	-12.800435161642453	484.17247166305447	501.813710548128	-5.816793893129771	10.167938931297709	-0.13740458015267176	0.17091454272863568	0.8440779610194902	0.9115442278860569	
1.7104017066813347E12	2.760869565217391	-6.217391304347826	4.391304347826087	3945.7875457875457	128.0	128.0	-8.821484902082075	-3.9402209449077787	-12.761705846989853	484.1693704330171	501.8269809278227	-8.931297709923664	7.786259541984733	-0.366412213740458	0.17091454272863568	0.8395802098950524	0.9250374812593702	
1.7104017067008665E12	2.858695652173913	-6.239130434782608	4.434782608695652	3944.322344322344	128.0	128.0	-8.816580631325321	-3.922334780971381	-12.738915412296702	484.1717504467667	501.8595077824006	-7.786259541984733	6.427480916030534	-0.32061068702290074	0.17841079460269865	0.8395802098950524	0.9220389805097451	
1.7104017067203984E12	2.8152173913043477	-6.25	4.369565217391305	3936.9963369963366	128.0	128.0	-8.798910832275253	-3.8982461569602673	-12.69715698923552	484.1730486360847	501.87789879773845	-6.6106870229007635	6.8396946564885495	-0.5038167938931297	0.1829085457271364	0.8365817091454273	0.9040479760119939	
1.7104017067399302E12	2.8152173913043477	-6.25	4.33695652173913	3944.322344322344	128.0	128.0	-8.783476803717233	-3.8386015699626874	-12.622078373679921	484.1720389332818	501.93653368193316	-6.458015267175572	6.702290076335878	-0.3511450381679389	0.17091454272863568	0.8365817091454273	0.9040479760119939	
1.7104017067594622E12	2.782608695652174	-6.228260869565217	4.326086956521739	3944.322344322344	128.0	128.0	-8.782899830687027	-3.8180469057615873	-12.600946736448615	484.17131771699405	501.96747386067796	-7.099236641221374	5.633587786259541	-0.16793893129770993	0.18590704647676162	0.8440779610194902	0.9145427286356821	
1.7104017067789941E12	2.8152173913043477	-6.163043478260869	4.260869565217392	3944.322344322344	128.0	128.0	-8.752031773570987	-3.7835727672067616	-12.535604540777749	484.16662981112364	501.9563671298465	-6.7328244274809155	4.778625954198473	0.33587786259541985	0.17991004497751123	0.8350824587706147	0.9055472263868065	
1.710401706798526E12	2.8369565217391304	-6.1521739130434785	4.282608695652174	3944.322344322344	128.0	128.0	-8.797540521328512	-3.74707922304621	-12.544619744374723	484.16836073021426	501.8786200140262	-6.702290076335878	5.007633587786259	0.7786259541984732	0.17391304347826086	0.8320839580209894	0.9115442278860569	
1.7104017068180579E12	2.8478260869565215	-6.217391304347826	4.33695652173913	3919.4139194139193	128.0	128.0	-8.830788592194152	-3.867161734957902	-12.697950327152054	484.1708128655926	501.83967433448726	-7.114503816793893	5.022900763358779	0.8244274809160305	0.17841079460269865	0.8365817091454273	0.9190404797601199	
1.7104017068375896E12	2.869565217391304	-6.282608695652174	4.326086956521739	3945.7875457875457	128.0	128.0	-8.852641445713216	-3.9443318777479988	-12.796973323461215	484.1695146762747	501.80419049312957	-6.625954198473282	5.129770992366412	0.8091603053435115	0.18440779610194902	0.8455772113943029	0.9025487256371814	
1.7104017068571216E12	2.8478260869565215	-6.25	4.434782608695652	3944.322344322344	128.0	128.0	-8.86814759590001	-3.9605592442225515	-12.828706840122562	484.1676395139265	501.7907758701773	-5.557251908396946	5.022900763358779	0.732824427480916	0.17241379310344826	0.8380809595202399	0.8950524737631184	
1.7104017068766533E12	2.869565217391304	-6.195652173913043	4.173913043478261	3936.9963369963366	128.0	128.0	-8.850910526622597	-3.951183432481699	-12.802093959104296	484.16857709510055	501.7969062086232	-3.8931297709923665	4.961832061068702	1.4961832061068703	0.17391304347826086	0.8470764617691154	0.8905547226386806	
1.7104017068961853E12	2.8043478260869565	-6.239130434782608	4.271739130434782	3917.948717948718	128.0	128.0	-8.848097783100341	-3.9478658375580125	-12.795963620658354	484.1702358925624	501.79892561422895	-5.312977099236641	4.580152671755725	1.0076335877862594	0.17691154422788605	0.841079460269865	0.9100449775112444	
1.7104017069157173E12	2.8152173913043477	-6.25	4.304347826086956	3944.322344322344	128.0	128.0	-8.839154701132143	-3.9729641643719873	-12.81211886550413	484.1687934599869	501.8344815772154	-6.458015267175572	4.3206106870229	0.9312977099236641	0.17841079460269865	0.8440779610194902	0.9115442278860569	
1.710401706935249E12	2.869565217391304	-6.228260869565217	4.282608695652174	3944.322344322344	128.0	128.0	-8.84110198510909	-3.9594774197909146	-12.800579404900004	484.16677405438116	501.85445926838634	-5.221374045801526	3.2061068702290076	1.0229007633587786	0.1874062968515742	0.8380809595202399	0.9025487256371814	
1.710401706954781E12	2.8369565217391304	-6.260869565217391	4.282608695652174	3944.322344322344	128.0	128.0	-8.849612337304633	-3.96178531191174	-12.811397649216373	484.1699474060473	501.8566229172496	-4.442748091603053	4.641221374045801	1.129770992366412	0.17841079460269865	0.8440779610194902	0.9115442278860569	
1.7104017069743127E12	2.8369565217391304	-6.206521739130435	4.260869565217392	3920.879120879121	128.0	128.0	-8.857329351583642	-3.9817630030826336	-12.839092354666276	484.1705243790775	501.874509081186	-4.030534351145038	5.129770992366412	1.4351145038167938	0.17391304347826086	0.8365817091454273	0.9085457271364318	
1.7104017069938447E12	2.8369565217391304	-6.163043478260869	4.228260869565217	3944.322344322344	128.0	128.0	-8.832447389655995	-3.933946363204285	-12.76639375286028	484.17102923047895	501.86477266130123	-2.8854961832061066	4.99236641221374	1.5725190839694656	0.1874062968515742	0.8305847076461769	0.9025487256371814	
1.7104017070133765E12	2.8369565217391304	-6.173913043478261	4.293478260869565	3944.322344322344	128.0	128.0	-8.820258834392886	-3.8106904996264586	-12.630949334019345	484.16958679790343	501.8582095930827	-3.4351145038167936	4.412213740458015	1.6030534351145038	0.1664167916041979	0.8440779610194902	0.9085457271364318	
1.7104017070329084E12	2.8369565217391304	-6.206521739130435	4.282608695652174	3938.461538461538	128.0	128.0	-8.796458696896876	-3.8299469745095944	-12.62640567140647	484.17247166305447	501.85402653861365	-4.183206106870228	5.0534351145038165	1.4961832061068703	0.18590704647676162	0.8395802098950524	0.9010494752623688	
1.7104017070524402E12	2.858695652173913	-6.217391304347826	4.271739130434782	3944.322344322344	128.0	128.0	-8.82292733465759	-3.983061192400598	-12.805988527058188	484.171966811653	501.8763842435342	-4.427480916030534	4.961832061068702	1.3282442748091603	0.17241379310344826	0.8380809595202399	0.8995502248875562	
1.7104017070719722E12	2.880434782608696	-6.217391304347826	4.260869565217392	3944.322344322344	128.0	128.0	-8.852136594311785	-4.0784781072709695	-12.930614701582755	484.17369773074364	501.89787648890933	-4.33587786259542	4.824427480916031	1.2519083969465647	0.1649175412293853	0.848575712143928	0.9025487256371814	
1.7104017070915042E12	2.891304347826087	-6.217391304347826	4.239130434782608	3942.8571428571427	128.0	128.0	-8.858483297644055	-4.066361673636637	-12.924844971280692	484.1695146762747	501.92073904523124	-4.2748091603053435	5.480916030534351	1.5419847328244274	0.17391304347826086	0.8320839580209894	0.9085457271364318	
1.710401707111036E12	2.869565217391304	-6.184782608695652	4.173913043478261	3944.322344322344	128.0	128.0	-8.844563823290327	-4.109634650902111	-12.954198474192438	484.1722552981681	501.94533252064383	-4.824427480916031	5.862595419847328	1.0687022900763359	0.1829085457271364	0.8440779610194902	0.9010494752623688	
1.7104017071305679E12	2.858695652173913	-6.206521739130435	4.195652173913043	3917.948717948718	128.0	128.0	-8.8511990131377	-4.270393761443348	-13.121592774581048	484.1700916493049	502.05950105899586	-4.8396946564885495	6.061068702290076	1.1450381679389312	0.1874062968515742	0.841079460269865	0.9130434782608695	
1.7104017071500996E12	2.880434782608696	-6.184782608695652	4.141304347826087	3945.7875457875457	128.0	128.0	-8.584132621780947	-2.8138253466874783	-11.397957968468425	484.17030801419116	501.0567219324973	-5.877862595419847	6.137404580152672	0.9618320610687022	0.18440779610194902	0.8380809595202399	0.8995502248875562	
1.7104017071696316E12	2.9130434782608696	-6.163043478260869	4.271739130434782	3945.7875457875457	128.0	128.0	-8.867786987756132	-3.8365100427281913	-12.704297030484323	484.17369773074364	501.4850522857967	-5.312977099236641	5.251908396946565	0.8244274809160305	0.17241379310344826	0.848575712143928	0.8995502248875562	
1.7104017071891633E12	2.8260869565217392	-6.206521739130435	4.065217391304348	3936.9963369963366	128.0	128.0	-8.76191243671327	-3.9989279507312734	-12.760840387444544	484.1743468254026	501.9448276692424	-7.893129770992366	6.412213740458015	0.6259541984732824	0.17991004497751123	0.8455772113943029	0.8995502248875562	
1.7104017072086953E12	2.880434782608696	-6.326086956521739	4.391304347826087	3944.322344322344	128.0	128.0	-8.782899830687027	-4.010900141108053	-12.79379997179508	484.172615906312	501.97403692889657	-9.725190839694656	4.412213740458015	0.6564885496183206	0.17841079460269865	0.8365817091454273	0.9085457271364318	
1.7104017072282273E12	2.869565217391304	-6.25	4.119565217391305	3944.322344322344	128.0	128.0	-8.782394979285597	-4.023593547772592	-12.805988527058188	484.17218317653936	502.01132381097364	-5.847328244274809	5.740458015267175	0.7175572519083969	0.1874062968515742	0.8455772113943029	0.9175412293853074	
1.710401707247759E12	2.8369565217391304	-6.08695652173913	4.119565217391305	3944.322344322344	128.0	128.0	-8.773524018946175	-4.01609289837991	-12.789616917326084	484.1750680416904	502.02185356877493	-4.015267175572519	9.587786259541984	0.8702290076335878	0.17691154422788605	0.8380809595202399	0.9205397301349325	
1.710401707267291E12	2.8260869565217392	-6.217391304347826	4.076086956521739	3944.322344322344	128.0	128.0	-8.794583534548705	-3.9581071088441746	-12.75269064339288	484.1715340818804	502.0356287998711	-9.083969465648854	7.526717557251908	1.0229007633587786	0.1874062968515742	0.8380809595202399	0.9280359820089955	
1.7104017072868228E12	2.902173913043478	-6.282608695652174	4.184782608695652	3920.879120879121	128.0	128.0	-8.774245235233932	-3.9454858238084096	-12.719731059042342	484.1713898386228	502.0621695592606	-8.870229007633588	6.137404580152672	0.6106870229007634	0.1664167916041979	0.8320839580209894	0.8935532233883058	
1.7104017073063547E12	2.869565217391304	-6.271739130434782	4.0978260869565215	3944.322344322344	128.0	128.0	-8.74683901629913	-3.932287565742442	-12.679126582041572	484.1733371225998	502.07428599289494	-7.6183206106870225	6.5038167938931295	0.6717557251908397	0.17691154422788605	0.8275862068965517	0.8995502248875562	
1.7104017073258865E12	2.8478260869565215	-6.293478260869565	4.076086956521739	3944.322344322344	128.0	128.0	-8.757152409214068	-3.8782684657893753	-12.635420875003444	484.1725437846832	502.1252038628106	-6.0	6.641221374045801	0.47328244274809156	0.17991004497751123	0.8380809595202399	0.9205397301349325	
1.7104017073454185E12	2.880434782608696	-6.228260869565217	4.010869565217392	3936.9963369963366	128.0	128.0	-8.729313460506614	-3.870839938025467	-12.60015339853208	484.1734813658573	502.15066279776846	-5.984732824427481	6.2748091603053435	0.7175572519083969	0.17841079460269865	0.8320839580209894	0.9040479760119939	
1.7104017073649504E12	2.869565217391304	-6.163043478260869	4.021739130434782	3944.322344322344	128.0	128.0	-8.748714178647301	-3.8111232293991133	-12.559837408046414	484.1717504467667	502.1568652578432	-5.022900763358779	6.305343511450381	0.8549618320610687	0.17841079460269865	0.8365817091454273	0.9085457271364318	
1.7104017073844822E12	2.8260869565217392	-6.195652173913043	4.054347826086956	3944.322344322344	128.0	128.0	-8.74994024633649	-3.79302070057639	-12.54296094691288	484.17045225744874	502.1119334831159	-5.175572519083969	6.946564885496183	1.1450381679389312	0.16941529235382308	0.8305847076461769	0.9100449775112444	
1.7104017074040142E12	2.8478260869565215	-6.260869565217391	4.043478260869565	3944.322344322344	128.0	128.0	-8.789102290761745	-3.842784624431685	-12.63188691519343	484.17456319028895	502.04572582789973	-6.030534351145038	7.1603053435114505	0.9770992366412213	0.1649175412293853	0.8380809595202399	0.9100449775112444	
1.710401707423546E12	2.880434782608696	-6.293478260869565	4.119565217391305	3938.461538461538	128.0	128.0	-8.836558322496215	-3.922911754001589	-12.759470076497804	484.1716783251379	502.0186802171088	-5.526717557251908	6.366412213740458	0.916030534351145	0.19490254872563717	0.8350824587706147	0.9175412293853074	
1.710401707443078E12	2.858695652173913	-6.304347826086956	3.9239130434782608	3917.948717948718	128.0	128.0	-8.839948039048677	-3.965102906835426	-12.805050945884103	484.1716783251379	502.0101698649132	-4.961832061068702	6.625954198473282	1.0687022900763359	0.18440779610194902	0.8380809595202399	0.9130434782608695	
1.7104017074626096E12	2.880434782608696	-6.293478260869565	4.184782608695652	3944.322344322344	128.0	128.0	-8.85343478362975	-3.946279161724945	-12.799713945354695	484.1744189470314	502.01283836517797	-2.610687022900763	6.916030534351145	0.8396946564885496	0.17241379310344826	0.841079460269865	0.9205397301349325	
1.7104017074821416E12	2.8369565217391304	-6.1521739130434785	3.9456521739130435	3944.322344322344	128.0	128.0	-8.822061875112281	-3.918945064418919	-12.7410069395312	484.1733371225998	502.00302982366446	-0.9312977099236641	6.641221374045801	1.3587786259541985	0.17391304347826086	0.8500749625187406	0.9085457271364318	
1.7104017075016736E12	2.869565217391304	-6.195652173913043	4.119565217391305	3935.531135531135	128.0	128.0	-8.84160683651052	-3.931205741310805	-12.772812577821325	484.17276014956957	502.02416146089575	-3.9847328244274807	6.748091603053435	1.2213740458015268	0.17991004497751123	0.8350824587706147	0.9130434782608695	
1.7104017075212053E12	2.891304347826087	-6.260869565217391	3.9239130434782608	3944.322344322344	128.0	128.0	-8.840669255336435	-3.919594159077903	-12.760263414414338	484.17276014956957	502.0357009214999	-4.885496183206107	7.511450381679389	0.9618320610687022	0.1664167916041979	0.8440779610194902	0.9085457271364318	
1.7104017075407373E12	2.8369565217391304	-6.228260869565217	4.054347826086956	3944.322344322344	128.0	128.0	-8.826461294467604	-3.9197384023354527	-12.746199696803057	484.1721110549106	502.04587007115725	-3.6030534351145036	7.297709923664121	0.9312977099236641	0.1664167916041979	0.8365817091454273	0.9040479760119939	
1.710401707560269E12	2.8152173913043477	-6.25	4.021739130434782	3944.322344322344	128.0	128.0	-8.843698363745018	-3.9063959010119333	-12.750094264756951	484.1718225683955	502.05639982895855	-3.8167938931297707	7.938931297709924	1.1450381679389312	0.17691154422788605	0.8380809595202399	0.9130434782608695	
1.710401707579801E12	2.793478260869565	-6.206521739130435	3.9891304347826084	3944.322344322344	128.0	128.0	-8.846511107267274	-3.8326875964030744	-12.679198703670348	484.173265000971	502.0632513836922	-2.8244274809160306	7.129770992366412	1.1755725190839694	0.18590704647676162	0.8365817091454273	0.9115442278860569	
1.7104017075993328E12	2.8043478260869565	-6.163043478260869	3.967391304347826	3920.879120879121	128.0	128.0	-8.809440590076518	-3.7103693139993332	-12.519809904075851	484.1741304605163	502.05084646354277	-2.8702290076335877	6.977099236641221	1.3740458015267174	0.17841079460269865	0.8440779610194902	0.9115442278860569	
1.7104017076188647E12	2.8260869565217392	-6.228260869565217	4.021739130434782	3917.948717948718	128.0	128.0	-8.81059453613693	-3.7589071701654397	-12.56950170630237	484.1753565282055	502.04161489505947	-3.5572519083969465	6.7328244274809155	1.2519083969465647	0.1829085457271364	0.8500749625187406	0.9220389805097451	
1.7104017076383967E12	2.8369565217391304	-6.293478260869565	4.054347826086956	3944.322344322344	128.0	128.0	-8.844635944919103	-3.8944237106351505	-12.739059655554254	484.1744189470314	502.0799836015682	-3.877862595419847	6.458015267175572	1.114503816793893	0.18590704647676162	0.8185907046476761	0.9115442278860569	
1.7104017076579285E12	2.858695652173913	-6.304347826086956	4.0978260869565215	3935.531135531135	128.0	128.0	-8.894327747145624	-3.9400767016502254	-12.83440444879585	484.1757892579781	502.0824357369466	-3.6946564885496183	6.152671755725191	1.2061068702290076	0.1634182908545727	0.8470764617691154	0.9085457271364318	
1.7104017076774604E12	2.869565217391304	-6.282608695652174	4.032608695652174	3945.7875457875457	128.0	128.0	-8.875071272262486	-3.959405298162139	-12.834476570424625	484.17925109615936	502.0809211827423	-3.480916030534351	5.740458015267175	1.2213740458015268	0.1649175412293853	0.848575712143928	0.9100449775112444	
1.7104017076969922E12	2.858695652173913	-6.217391304347826	3.9782608695652173	3945.7875457875457	128.0	128.0	-8.872835501770437	-3.9965479369816705	-12.869383438752108	484.1794674610457	502.09585035989886	-3.6946564885496183	5.969465648854961	1.099236641221374	0.17841079460269865	0.8500749625187406	0.9145427286356821	
1.7104017077165242E12	2.858695652173913	-6.228260869565217	3.9891304347826084	3944.322344322344	128.0	128.0	-8.876657948095554	-4.152042168622277	-13.02870011671783	484.1765825958947	502.20266249211585	-4.045801526717557	6.137404580152672	0.8396946564885496	0.1829085457271364	0.8440779610194902	0.9115442278860569	
1.710401707736056E12	2.869565217391304	-6.217391304347826	3.9782608695652173	3944.322344322344	128.0	128.0	-8.656110007299187	-2.6961949701541617	-11.352304977453349	484.17701532566736	501.1863966210362	-4.3206106870229	6.427480916030534	1.129770992366412	0.17841079460269865	0.8395802098950524	0.9145427286356821	
1.710401707755588E12	2.858695652173913	-6.228260869565217	4.130434782608695	3920.879120879121	128.0	128.0	-8.964934821717122	-3.922911754001589	-12.887846575718712	484.1804771638486	501.73221310761136	-4.198473282442748	5.221374045801526	0.6870229007633587	0.17391304347826086	0.8500749625187406	0.9145427286356821	
1.7104017077751199E12	2.8369565217391304	-6.195652173913043	3.902173913043478	3944.322344322344	128.0	128.0	-8.85256932408444	-3.8769702764714093	-12.72953960055585	484.1810541368788	502.0206996227145	-6.213740458015267	6.3206106870229	0.7480916030534351	0.18590704647676162	0.8245877061469266	0.9115442278860569	
1.7104017077946516E12	2.9239130434782608	-6.358695652173913	4.271739130434782	3944.322344322344	128.0	128.0	-8.866560920066943	-3.9077662119586734	-12.774327132025617	484.1821359613104	502.0460864360436	-6.351145038167939	3.49618320610687	0.38167938931297707	0.17691154422788605	0.841079460269865	0.9055472263868065	
1.7104017078141836E12	2.8152173913043477	-6.195652173913043	4.076086956521739	3935.531135531135	128.0	128.0	-8.851559621281579	-3.9155553478664586	-12.767114969148038	484.1809098936212	502.0448603683544	-1.5725190839694656	5.893129770992366	0.21374045801526717	0.17241379310344826	0.8350824587706147	0.9175412293853074	
1.7104017078337153E12	2.8369565217391304	-6.1521739130434785	4.032608695652174	3944.322344322344	128.0	128.0	-8.840020160677453	-3.906900752413362	-12.746920913090815	484.180332920591	502.0532264772924	-2.8091603053435112	10.396946564885496	0.9770992366412213	0.17841079460269865	0.8545727136431783	0.9145427286356821	
1.7104017078532473E12	2.858695652173913	-6.25	4.043478260869565	3944.322344322344	128.0	128.0	-8.841174106737865	-3.8854806286669525	-12.726654735404818	484.1801886773335	502.0516398014593	-5.32824427480916	7.969465648854961	1.0687022900763359	0.1829085457271364	0.8395802098950524	0.9115442278860569	
1.710401707872779E12	2.858695652173913	-6.271739130434782	4.032608695652174	3942.8571428571427	128.0	128.0	-8.8237927942029	-3.8641326265493188	-12.687925420752219	484.18026079896225	502.0576258966477	-4.259541984732825	7.343511450381679	0.8854961832061068	0.19040479760119938	0.8245877061469266	0.8935532233883058	
1.710401707892311E12	2.8478260869565215	-6.271739130434782	3.9782608695652173	3944.322344322344	128.0	128.0	-8.83562074132213	-3.825259068639168	-12.660879809961298	484.17925109615936	502.07031930331226	-3.480916030534351	7.129770992366412	0.6870229007633587	0.17841079460269865	0.8365817091454273	0.9190404797601199	
1.710401707911843E12	2.869565217391304	-6.326086956521739	4.032608695652174	3920.879120879121	128.0	128.0	-8.805401778865074	-3.795112227810886	-12.60051400667596	484.1806935287349	502.0910182107709	-2.16793893129771	7.312977099236641	1.0534351145038168	0.1874062968515742	0.8455772113943029	0.9130434782608695	
1.7104017079313748E12	2.869565217391304	-6.271739130434782	3.9891304347826084	3944.322344322344	128.0	128.0	-8.802156305570163	-3.775639388041423	-12.577795693611586	484.17614986612205	502.0998891711103	-2.6564885496183206	6.687022900763359	0.9618320610687022	0.17841079460269865	0.8500749625187406	0.9085457271364318	
1.7104017079509067E12	2.869565217391304	-6.282608695652174	3.9782608695652173	3945.7875457875457	128.0	128.0	-8.795160507578911	-3.7360446138435144	-12.531205121422426	484.1729765144559	502.0880612239911	-2.519083969465649	6.931297709923664	1.0381679389312977	0.1874062968515742	0.8380809595202399	0.9130434782608695	
1.7104017079704385E12	2.8478260869565215	-6.260869565217391	4.010869565217392	3935.531135531135	128.0	128.0	-8.809801198220397	-3.728688207708384	-12.53848940592878	484.1749237984328	502.03072452911437	-2.183206106870229	7.145038167938931	1.0534351145038168	0.17691154422788605	0.8380809595202399	0.9100449775112444	
1.7104017079899705E12	2.8369565217391304	-6.260869565217391	4.021739130434782	3944.322344322344	128.0	128.0	-8.853867513402404	-3.8536749903768293	-12.707542503779234	484.1757892579781	501.976489064275	-2.687022900763359	7.358778625954198	1.083969465648855	0.1934032983508246	0.8440779610194902	0.9085457271364318	
1.7104017080095022E12	2.8260869565217392	-6.282608695652174	4.054347826086956	3944.322344322344	128.0	128.0	-8.87485490737616	-3.902717697944368	-12.777572605320527	484.17586137960694	501.95146285908976	-2.9618320610687023	7.1603053435114505	0.7786259541984732	0.1649175412293853	0.8350824587706147	0.9130434782608695	
1.7104017080290342E12	2.869565217391304	-6.315217391304348	3.902173913043478	3944.322344322344	128.0	128.0	-8.890288935934178	-3.925363889379966	-12.815652825314144	484.1780250284702	501.93920218219785	-3.3587786259541983	6.442748091603053	0.9007633587786259	0.18440779610194902	0.8350824587706147	0.9205397301349325	
1.710401708048566E12	2.9130434782608696	-6.326086956521739	4.173913043478261	3945.7875457875457	128.0	128.0	-8.898799288129723	-3.9068286307845863	-12.80562791891431	484.17636623100833	501.92759059996496	-1.2671755725190839	7.251908396946565	1.0229007633587786	0.19040479760119938	0.8245877061469266	0.9040479760119939	
1.710401708068098E12	2.858695652173913	-6.271739130434782	3.9891304347826084	3922.344322344322	128.0	128.0	-8.890649544078057	-3.9080546984737765	-12.798704242551834	484.17838563661405	501.91540204470186	-0.2748091603053435	7.908396946564885	1.6946564885496183	0.1664167916041979	0.8245877061469266	0.9040479760119939	
1.71040170808763E12	2.891304347826087	-6.282608695652174	4.130434782608695	3945.7875457875457	128.0	128.0	-8.893678652486642	-3.9033667926033484	-12.79704544508999	484.17824139335653	501.9329276004944	-2.0610687022900764	8.305343511450381	1.4045801526717556	0.17241379310344826	0.8380809595202399	0.9130434782608695	
1.7104017081071616E12	2.9130434782608696	-6.304347826086956	4.021739130434782	3945.7875457875457	128.0	128.0	-8.900097477447687	-3.910434712223376	-12.810532189671063	484.1773759338112	501.93033122185847	-1.9083969465648853	8.396946564885496	1.5572519083969465	0.17241379310344826	0.8380809595202399	0.9100449775112444	
1.7104017081266936E12	2.880434782608696	-6.282608695652174	4.065217391304348	3935.531135531135	128.0	128.0	-8.881490097223532	-3.898318278589045	-12.779808375812577	484.17867412312916	501.93112455977496	-1.4351145038167938	8.80916030534351	1.9541984732824427	0.1829085457271364	0.8440779610194902	0.9115442278860569	
1.7104017081462253E12	2.8152173913043477	-6.304347826086956	4.130434782608695	3944.322344322344	128.0	128.0	-8.900097477447687	-3.884687290750419	-12.784784768198106	484.17723169055364	501.9348748844713	-1.83206106870229	10.48854961832061	1.816793893129771	0.17391304347826086	0.8320839580209894	0.9145427286356821	
1.7104017081657573E12	2.8152173913043477	-6.282608695652174	4.119565217391305	3945.7875457875457	128.0	128.0	-8.886105881465182	-3.8318942584865407	-12.718000139951723	484.17809715009895	501.9153299230731	-0.41221374045801523	10.167938931297709	1.9694656488549618	0.17091454272863568	0.8395802098950524	0.9220389805097451	
1.710401708185289E12	2.8043478260869565	-6.25	4.173913043478261	3944.322344322344	128.0	128.0	-8.846511107267274	-3.6880116090788384	-12.534522716346112	484.1777365419551	501.8802066898593	0.5038167938931297	9.389312977099236	2.0610687022900764	0.1829085457271364	0.8365817091454273	0.9145427286356821	
1.710401708204821E12	2.8152173913043477	-6.282608695652174	4.119565217391305	3945.7875457875457	128.0	128.0	-8.847520810070135	-3.7762163610716293	-12.623737171141764	484.1813426233939	501.8784036491399	-0.7175572519083969	8.473282442748092	1.984732824427481	0.1634182908545727	0.8320839580209894	0.9190404797601199	
1.710401708224353E12	2.8043478260869565	-6.315217391304348	4.119565217391305	3922.344322344322	128.0	128.0	-8.880264029534343	-3.943177931687586	-12.82344196122193	484.1844438534312	501.9074686655365	-1.450381679389313	8.6412213740458	2.198473282442748	0.18440779610194902	0.848575712143928	0.9130434782608695	
1.7104017082438848E12	2.8152173913043477	-6.271739130434782	4.1521739130434785	3944.322344322344	128.0	128.0	-8.910771478506504	-3.9990000723600474	-12.909771550866552	484.18235232619674	501.9087668548545	-0.9007633587786259	7.9541984732824424	2.229007633587786	0.17241379310344826	0.8275862068965517	0.9175412293853074	
1.7104017082634167E12	2.8152173913043477	-6.271739130434782	4.119565217391305	3944.322344322344	128.0	128.0	-8.90997814058997	-4.002317667283734	-12.912295807873704	484.18393900202983	501.9162675042472	-1.3435114503816794	8.076335877862595	2.381679389312977	0.1874062968515742	0.8350824587706147	0.8950524737631184	
1.7104017082829485E12	2.793478260869565	-6.271739130434782	4.0978260869565215	3935.531135531135	128.0	128.0	-8.898294436728293	-4.09283031139735	-12.991124748125642	484.182280204568	501.9713684286319	-1.5877862595419847	8.351145038167939	2.198473282442748	0.17841079460269865	0.8365817091454273	0.9190404797601199	
1.7104017083024805E12	2.782608695652174	-6.271739130434782	4.108695652173913	3944.322344322344	128.0	128.0	-8.855742675750575	-4.229789284442578	-13.085531960193153	484.1833620289996	502.04161489505947	-2.1068702290076335	8.50381679389313	1.9236641221374045	0.18440779610194902	0.8305847076461769	0.9055472263868065	
1.7104017083220122E12	2.8043478260869565	-6.25	4.108695652173913	3944.322344322344	128.0	128.0	-8.698156916875472	-2.819018103959335	-11.517175020834808	484.1836505155147	500.9470249351293	-2.595419847328244	8.091603053435113	2.213740458015267	0.17991004497751123	0.8455772113943029	0.9025487256371814	
1.7104017083415442E12	2.7282608695652173	-6.260869565217391	4.195652173913043	3942.8571428571427	128.0	128.0	-8.908030856613024	-4.101052177077792	-13.009083033690816	484.1840111236586	501.68944498174733	-3.0076335877862594	7.251908396946565	2.1374045801526718	0.1619190404797601	0.8455772113943029	0.9100449775112444	
1.7104017083610762E12	2.7717391304347827	-6.163043478260869	3.9891304347826084	3944.322344322344	128.0	128.0	-8.866849406582046	-3.946639769868824	-12.81348917645087	484.185165069719	501.9170608421637	-4.793893129770992	8.16793893129771	1.9389312977099236	0.18440779610194902	0.841079460269865	0.9130434782608695	
1.710401708380608E12	2.8043478260869565	-6.413043478260869	4.282608695652174	3919.4139194139193	128.0	128.0	-8.856896621810987	-3.9839266519459073	-12.840823273756895	484.1850208264614	501.9316294111764	-5.603053435114504	6.33587786259542	2.16793893129771	0.1829085457271364	0.8365817091454273	0.9145427286356821	
1.71040170840014E12	2.782608695652174	-6.25	4.1521739130434785	3944.322344322344	128.0	128.0	-8.851343256395252	-3.9862345440667326	-12.837577800461984	484.18480446157514	501.9539871160969	-0.9007633587786259	6.717557251908397	2.351145038167939	0.17691154422788605	0.8230884557721139	0.9100449775112444	
1.7104017084196716E12	2.7282608695652173	-6.195652173913043	4.119565217391305	3945.7875457875457	128.0	128.0	-8.844780188176655	-3.9821957328552884	-12.826975921031943	484.18588628600673	501.94929921022646	-0.366412213740458	9.908396946564885	1.8625954198473282	0.17391304347826086	0.8395802098950524	0.9115442278860569	
1.7104017084392036E12	2.6630434782608696	-6.315217391304348	4.130434782608695	3935.531135531135	128.0	128.0	-8.843626242116242	-3.94808220244434	-12.791708444560582	484.18704023206715	501.96264171155	-5.236641221374046	8.0	2.33587786259542	0.17091454272863568	0.8365817091454273	0.9220389805097451	
1.7104017084587354E12	2.8260869565217392	-6.315217391304348	4.173913043478261	3944.322344322344	128.0	128.0	-8.829201916361084	-3.9122377529427705	-12.741439669303855	484.1866075022945	501.9805278754864	-4.625954198473282	6.229007633587786	2.2442748091603053	0.16941529235382308	0.8380809595202399	0.9175412293853074	
1.7104017084782673E12	2.8152173913043477	-6.293478260869565	4.1521739130434785	3945.7875457875457	128.0	128.0	-8.815354563636133	-3.891827331999222	-12.707181895635355	484.18732871858225	501.994158863325	-3.465648854961832	7.6183206106870225	2.3053435114503817	0.1934032983508246	0.8365817091454273	0.9115442278860569	
1.7104017084977993E12	2.75	-6.282608695652174	4.130434782608695	3942.8571428571427	128.0	128.0	-8.810306049621827	-3.865719302382386	-12.676025352004213	484.1866075022945	502.04889917956586	-2.8702290076335877	8.580152671755725	2.015267175572519	0.17241379310344826	0.8305847076461769	0.9175412293853074	
1.710401708517331E12	2.717391304347826	-6.260869565217391	4.130434782608695	3944.322344322344	128.0	128.0	-8.801435089282405	-3.8398997592806534	-12.641334848563059	484.18408324528735	502.05978954551097	-2.2442748091603053	8.442748091603054	1.6335877862595418	0.16941529235382308	0.8455772113943029	0.9130434782608695	
1.710401708536863E12	2.717391304347826	-6.217391304347826	4.141304347826087	3920.879120879121	128.0	128.0	-8.793357466859517	-3.8159553785270894	-12.609312845386606	484.18422748854493	502.05632770732973	-2.16793893129771	7.32824427480916	2.030534351145038	0.17391304347826086	0.8320839580209894	0.9145427286356821	
1.7104017085563948E12	2.7065217391304346	-6.271739130434782	4.119565217391305	3945.7875457875457	128.0	128.0	-8.807060576326917	-3.8195614599658807	-12.626622036292797	484.18408324528735	501.99350976866606	-3.0839694656488548	7.465648854961832	2.259541984732824	0.19940029985007496	0.8350824587706147	0.9100449775112444	
1.7104017085759268E12	2.6739130434782608	-6.260869565217391	4.119565217391305	3944.322344322344	128.0	128.0	-8.851848107796682	-3.9465676482400482	-12.79841575603673	484.1844438534312	501.950092548143	-2.931297709923664	7.526717557251908	2.3206106870229006	0.17391304347826086	0.8365817091454273	0.9145427286356821	
1.7104017085954585E12	2.6739130434782608	-6.293478260869565	4.184782608695652	3936.9963369963366	128.0	128.0	-8.853579026887301	-4.016525628152564	-12.870104655039865	484.1833620289996	501.92946576231316	-2.4122137404580153	7.7251908396946565	2.045801526717557	0.17241379310344826	0.8305847076461769	0.9130434782608695	
1.7104017086149905E12	2.6739130434782608	-6.293478260869565	4.163043478260869	3944.322344322344	128.0	128.0	-8.856319648780781	-4.032248143225688	-12.88856779200647	484.1811983801363	501.9171329637925	-2.1374045801526718	7.603053435114504	2.0610687022900764	0.17841079460269865	0.8320839580209894	0.9115442278860569	
1.7104017086345225E12	2.7391304347826084	-6.239130434782608	4.108695652173913	3944.322344322344	128.0	128.0	-8.842760782570933	-4.0359263462932535	-12.878687128864186	484.1842996101737	501.9251384645866	-1.66412213740458	7.175572519083969	1.8473282442748091	0.17991004497751123	0.841079460269865	0.9340329835082458	
1.7104017086540542E12	2.630434782608696	-6.260869565217391	4.119565217391305	3944.322344322344	128.0	128.0	-8.863171203514481	-3.9982067344435137	-12.861377937957995	484.1812705017651	501.92860030276785	-1.4961832061068703	6.778625954198473	2.351145038167939	0.1619190404797601	0.8380809595202399	0.9175412293853074	
1.7104017086735862E12	2.6956521739130435	-6.304347826086956	4.173913043478261	3935.531135531135	128.0	128.0	-8.875648245292693	-4.036431197694684	-12.912079442987377	484.185165069719	501.93711065496336	-5.0534351145038165	8.122137404580153	1.7862595419847327	0.17391304347826086	0.8320839580209894	0.9145427286356821	
1.710401708693118E12	2.7282608695652173	-6.3478260869565215	4.184782608695652	3928.205128205128	128.0	128.0	-8.870743974535939	-4.005779505464973	-12.876523480000913	484.1824244478255	501.9254990727305	-4.33587786259542	6.290076335877862	1.7557251908396947	0.1634182908545727	0.8290854572713643	0.9115442278860569	
1.71040170871265E12	2.684782608695652	-6.434782608695652	4.304347826086956	3944.322344322344	128.0	128.0	-8.856968743439763	-4.061024673107228	-12.917993416546992	484.17896260964426	501.93812035776625	-4.549618320610687	6.641221374045801	1.3129770992366412	0.1664167916041979	0.8365817091454273	0.896551724137931	
1.7104017087321816E12	2.652173913043478	-6.33695652173913	4.239130434782608	3944.322344322344	128.0	128.0	-8.86850820404389	-4.071482309279718	-12.939990513323608	484.1811983801363	501.9423034122352	-5.66412213740458	8.335877862595419	1.114503816793893	0.17241379310344826	0.8350824587706147	0.9130434782608695	
1.7104017087517136E12	2.6739130434782608	-6.380434782608695	4.282608695652174	3935.531135531135	128.0	128.0	-8.863676054915912	-4.002678275427613	-12.866354330343524	484.18112625850756	501.9343700330699	-4.198473282442748	7.603053435114504	1.099236641221374	0.18440779610194902	0.8350824587706147	0.9130434782608695	
1.7104017087712456E12	2.6739130434782608	-6.380434782608695	4.25	3944.322344322344	128.0	128.0	-8.846078377494619	-3.897669183930061	-12.74374756142468	484.17997231244715	501.908911098112	-4.458015267175572	6.946564885496183	1.2213740458015268	0.1649175412293853	0.8455772113943029	0.9205397301349325	
1.7104017087907773E12	2.6739130434782608	-6.5	4.423913043478261	3944.322344322344	128.0	128.0	-8.829418281247412	-3.986162422437957	-12.815580703685368	484.18177535316653	501.9120123281494	-4.900763358778626	6.885496183206107	0.564885496183206	0.18590704647676162	0.8365817091454273	0.9145427286356821	
1.7104017088103093E12	2.6630434782608696	-6.391304347826087	4.271739130434782	3942.8571428571427	128.0	128.0	-8.812109090341222	-4.222360756678672	-13.034469847019894	484.1791789745306	501.9525446835214	-6.091603053435114	6.65648854961832	0.3511450381679389	0.16941529235382308	0.8305847076461769	0.9205397301349325	
1.710401708829841E12	2.7065217391304346	-6.260869565217391	4.0978260869565215	3936.9963369963366	128.0	128.0	-8.842255931169502	-4.3019830348471455	-13.144238966016648	484.1809098936212	501.97612845613105	-4.824427480916031	7.694656488549618	0.6106870229007634	0.17991004497751123	0.841079460269865	0.9175412293853074	
1.710401708849373E12	2.7282608695652173	-6.282608695652174	4.130434782608695	3920.879120879121	128.0	128.0	-8.787587736557454	-4.383913205136443	-13.171500941693896	484.1794674610457	502.0028855804069	-4.122137404580153	7.938931297709924	0.6412213740458015	0.17241379310344826	0.8350824587706147	0.9055472263868065	
1.7104017088689048E12	2.6956521739130435	-6.282608695652174	4.130434782608695	3944.322344322344	128.0	128.0	-8.798405980873822	-4.445865684254846	-13.244271665128668	484.1779529068414	502.0374318405905	-5.816793893129771	8.458015267175572	0.6717557251908397	0.17841079460269865	0.8545727136431783	0.9040479760119939	
1.7104017088884368E12	2.7282608695652173	-6.25	3.9891304347826084	3944.322344322344	128.0	128.0	-8.78095254671008	-4.6160727281657135	-13.397025274875794	484.1779529068414	502.1663853128416	-4.9465648854961835	7.786259541984733	0.8396946564885496	0.17391304347826086	0.8470764617691154	0.9145427286356821	
1.7104017089079688E12	2.760869565217391	-6.217391304347826	3.8478260869565215	3935.531135531135	128.0	128.0	-8.545042698984469	-3.170538922612538	-11.715581621597007	484.17852987987163	501.0394127415911	-5.32824427480916	8.458015267175572	1.0687022900763359	0.17691154422788605	0.8350824587706147	0.9130434782608695	
1.7104017089275005E12	2.684782608695652	-6.173913043478261	4.0	3944.322344322344	128.0	128.0	-8.865262730748979	-4.489282904777873	-13.354545635526852	484.17723169055364	501.7475750145406	-8.366412213740457	7.923664122137405	0.4580152671755725	0.17841079460269865	0.8365817091454273	0.9250374812593702	
1.7104017089470325E12	2.7065217391304346	-6.206521739130435	3.902173913043478	3944.322344322344	128.0	128.0	-8.812469698485101	-4.392567800589537	-13.205037499074638	484.1765104742659	502.02949846142513	-10.473282442748092	6.900763358778626	0.2748091603053435	0.1634182908545727	0.8185907046476761	0.9115442278860569	
1.7104017089665642E12	2.760869565217391	-6.423913043478261	4.032608695652174	3944.322344322344	128.0	128.0	-8.821124293938196	-4.396750855058533	-13.217875148996729	484.1776644203263	502.0615925862304	-5.6183206106870225	8.274809160305344	0.04580152671755725	0.1664167916041979	0.8320839580209894	0.9250374812593702	
1.7104017089860962E12	2.7282608695652173	-6.195652173913043	3.869565217391304	3945.7875457875457	128.0	128.0	-8.80871937378876	-4.430431655696827	-13.239151029485587	484.17816927172777	502.0882775888774	-2.33587786259542	11.114503816793892	0.15267175572519084	0.17391304347826086	0.8320839580209894	0.9190404797601199	
1.710401709005628E12	2.6630434782608696	-6.163043478260869	3.934782608695652	3932.6007326007325	128.0	128.0	-8.805257535607522	-4.423796465849454	-13.229054001456976	484.1731928793422	502.0847436290674	-5.66412213740458	10.106870229007633	-0.015267175572519083	0.17841079460269865	0.8215892053973013	0.9220389805097451	
1.71040170902516E12	2.630434782608696	-6.315217391304348	3.891304347826087	3944.322344322344	128.0	128.0	-8.808286644016105	-4.387879894719111	-13.196166538735216	484.1741304605163	502.10039402251175	-5.465648854961832	7.312977099236641	-0.41221374045801523	0.19040479760119938	0.8290854572713643	0.9190404797601199	
1.7104017090446917E12	2.7282608695652173	-6.271739130434782	3.9891304347826084	3944.322344322344	128.0	128.0	-8.794078683147275	-4.372157379645989	-13.166236062793264	484.1714619602516	502.1195062541373	-3.9541984732824424	7.633587786259541	-0.13740458015267176	0.17841079460269865	0.8470764617691154	0.9220389805097451	
1.7104017090642236E12	2.717391304347826	-6.369565217391304	3.9782608695652173	3934.065934065934	128.0	128.0	-8.808070279129778	-4.3369620248034035	-13.145032303933181	484.17074074396385	502.1369596883011	-1.9389312977099236	8.885496183206106	-0.015267175572519083	0.17991004497751123	0.8305847076461769	0.9175412293853074	
1.7104017090837556E12	2.6739130434782608	-6.326086956521739	3.902173913043478	3944.322344322344	128.0	128.0	-8.781168911596408	-4.305805481172261	-13.086974392768669	484.17016377093364	502.1901854503376	0.15267175572519084	7.938931297709924	0.13740458015267176	0.18440779610194902	0.8200899550224887	0.9310344827586207	
1.7104017091032874E12	2.684782608695652	-6.239130434782608	3.9891304347826084	3944.322344322344	128.0	128.0	-8.773163410802296	-4.300973332044283	-13.074136742846578	484.16915406813075	502.2198995613932	0.0916030534351145	7.129770992366412	0.0	0.17091454272863568	0.8320839580209894	0.9220389805097451	
1.7104017091228193E12	2.684782608695652	-6.206521739130435	3.9456521739130435	3941.391941391941	128.0	128.0	-8.781601641369063	-4.26008036852841	-13.041682009897473	484.1716783251379	502.2049703842367	-0.1984732824427481	7.480916030534351	0.2748091603053435	0.17091454272863568	0.8500749625187406	0.9250374812593702	
1.710401709142351E12	2.6739130434782608	-6.25	3.967391304347826	3945.7875457875457	128.0	128.0	-8.784630749777646	-4.23043837910156	-13.015069128879206	484.16915406813075	502.13306512034717	-0.13740458015267176	7.251908396946565	0.16793893129770993	0.17991004497751123	0.8305847076461769	0.9100449775112444	
1.710401709161883E12	2.6630434782608696	-6.195652173913043	4.032608695652174	3920.879120879121	128.0	128.0	-8.844563823290327	-4.327514091433775	-13.172077914724102	484.17074074396385	502.0732041684633	0.6106870229007634	6.580152671755725	-0.12213740458015267	0.17691154422788605	0.8230884557721139	0.9235382308845577	
1.7104017091814148E12	2.717391304347826	-6.326086956521739	4.076086956521739	3944.322344322344	128.0	128.0	-8.864469392832445	-4.38398532676522	-13.248454719597666	484.16864921672936	502.0466634090738	0.38167938931297707	6.244274809160305	0.07633587786259542	0.17841079460269865	0.8320839580209894	0.9250374812593702	
1.7104017092009468E12	2.7065217391304346	-6.293478260869565	3.967391304347826	3944.322344322344	128.0	128.0	-8.878821596958828	-4.382975623962359	-13.261797220921187	484.1717504467667	502.03930700293864	0.7480916030534351	6.061068702290076	0.061068702290076333	0.17391304347826086	0.8245877061469266	0.9295352323838081	
1.7104017092204788E12	2.7717391304347827	-6.173913043478261	4.076086956521739	3934.065934065934	128.0	128.0	-8.876297339951675	-4.341938417188933	-13.218235757140608	484.1682164869567	502.034042124038	1.6030534351145038	5.6183206106870225	0.366412213740458	0.17091454272863568	0.8320839580209894	0.9115442278860569	
1.7104017092400105E12	2.6630434782608696	-6.239130434782608	4.043478260869565	3944.322344322344	128.0	128.0	-8.862305743969172	-4.333572308250941	-13.195878052220113	484.1685049734718	502.02884936676617	-1.2671755725190839	5.633587786259541	0.13740458015267176	0.17991004497751123	0.8455772113943029	0.9100449775112444	
1.7104017092595425E12	2.7065217391304346	-6.282608695652174	4.021739130434782	3944.322344322344	128.0	128.0	-8.862738473741826	-4.3400632548407625	-13.202801728582589	484.17001952767606	502.0512070716867	-1.5267175572519083	4.290076335877862	0.07633587786259542	0.17691154422788605	0.8275862068965517	0.9235382308845577	
1.7104017092790742E12	2.7282608695652173	-6.25	4.0978260869565215	3944.322344322344	128.0	128.0	-8.865551217264082	-4.318066158064147	-13.183617375328229	484.1708128655926	502.0532264772924	-0.7022900763358778	4.213740458015267	0.07633587786259542	0.191904047976012	0.8275862068965517	0.9175412293853074	
1.7104017092986062E12	2.7391304347826084	-6.239130434782608	4.0978260869565215	3935.531135531135	128.0	128.0	-8.878172502299845	-4.30515638651328	-13.183328888813126	484.1730486360847	502.06707383001736	-1.0534351145038168	4.549618320610687	0.12213740458015267	0.17691154422788605	0.8455772113943029	0.9130434782608695	
1.710401709318138E12	2.717391304347826	-6.282608695652174	4.195652173913043	3936.9963369963366	128.0	128.0	-8.861873014196517	-4.277101072919498	-13.138974087116015	484.17470743354653	502.05654407221607	-0.8244274809160305	4.290076335877862	0.24427480916030533	0.18440779610194902	0.8275862068965517	0.9205397301349325	
1.71040170933767E12	2.6956521739130435	-6.293478260869565	4.206521739130435	3944.322344322344	128.0	128.0	-8.856319648780781	-4.200724268045935	-13.057043916826716	484.1750680416904	502.0434179357789	-0.2900763358778626	3.4198473282442747	0.366412213740458	0.19940029985007496	0.8380809595202399	0.9130434782608695	
1.710401709357202E12	2.717391304347826	-6.206521739130435	4.163043478260869	3944.322344322344	128.0	128.0	-8.840813498593986	-4.0870605810952885	-12.927874079689275	484.1705243790775	502.01024198654204	-0.9923664122137404	2.8854961832061066	0.5038167938931297	0.17391304347826086	0.8365817091454273	0.9250374812593702	
1.7104017093767336E12	2.7282608695652173	-6.184782608695652	4.130434782608695	3934.065934065934	128.0	128.0	-8.821484902082075	-4.225389865087255	-13.04687476716933	484.1725437846832	502.0358451647574	-1.83206106870229	3.16030534351145	1.0534351145038168	0.17691154422788605	0.841079460269865	0.9100449775112444	
1.7104017093962656E12	2.760869565217391	-6.1521739130434785	4.054347826086956	3944.322344322344	128.0	128.0	-8.879687056504137	-4.358886999951244	-13.23857405645538	484.17283227119833	502.0808490611135	-2.2900763358778624	3.5725190839694654	0.6106870229007634	0.18590704647676162	0.8245877061469266	0.9190404797601199	
1.7104017094157974E12	2.75	-6.271739130434782	3.8804347826086953	3945.7875457875457	128.0	128.0	-8.88855801684356	-4.379658029038673	-13.268216045882232	484.1723274197969	502.0895757781954	-1.7709923664122136	3.83206106870229	0.04580152671755725	0.191904047976012	0.8380809595202399	0.9130434782608695	
1.7104017094353293E12	2.760869565217391	-6.173913043478261	4.271739130434782	3942.8571428571427	128.0	128.0	-8.89281319294133	-4.39170234104423	-13.28451553398556	484.1711734737365	502.1089043747073	-2.4580152671755724	3.877862595419847	0.5343511450381679	0.17691154422788605	0.841079460269865	0.9055472263868065	
1.710401709454861E12	2.7717391304347827	-6.304347826086956	4.391304347826087	3944.322344322344	128.0	128.0	-8.900097477447687	-4.581310103095781	-13.481407580543468	484.1729765144559	502.2092976819632	-3.32824427480916	3.2519083969465647	0.2748091603053435	0.16941529235382308	0.8350824587706147	0.9175412293853074	
1.710401709474393E12	2.760869565217391	-6.239130434782608	4.130434782608695	3936.9963369963366	128.0	128.0	-8.607283664617976	-3.3756528348508876	-11.982936499468863	484.1731928793422	501.34794906949395	-2.8244274809160306	2.183206106870229	0.015267175572519083	0.17391304347826086	0.8320839580209894	0.9085457271364318	
1.710401709493925E12	2.7717391304347827	-6.304347826086956	4.293478260869565	3944.322344322344	128.0	128.0	-8.809729076591621	-3.839755516023102	-12.649484592614723	484.17369773074364	501.45007329584047	-3.4198473282442747	2.5038167938931295	0.030534351145038167	0.1829085457271364	0.8470764617691154	0.9115442278860569	
1.7104017095134568E12	2.760869565217391	-6.3478260869565215	4.239130434782608	3942.8571428571427	128.0	128.0	-8.830716470565376	-4.346770566316911	-13.177487036882287	484.17247166305447	502.0347633403258	-5.175572519083969	3.5267175572519083	-0.015267175572519083	0.17841079460269865	0.8365817091454273	0.9145427286356821	
1.7104017095329888E12	2.8043478260869565	-6.423913043478261	4.445652173913043	3932.6007326007325	128.0	128.0	-8.858194811128952	-4.280130181328081	-13.138324992457033	484.17189469002426	502.12181414625815	-6.381679389312977	2.351145038167939	-0.2595419847328244	0.17391304347826086	0.8395802098950524	0.896551724137931	
1.7104017095525205E12	2.891304347826087	-6.434782608695652	4.3478260869565215	3917.948717948718	128.0	128.0	-8.847809296585238	-4.282582316706458	-13.130391613291696	484.1744189470314	502.1363105936421	-1.4045801526717556	3.6488549618320607	-0.16793893129770993	0.17691154422788605	0.8230884557721139	0.9130434782608695	
1.7104017095720525E12	2.869565217391304	-6.217391304347826	4.282608695652174	3944.322344322344	128.0	128.0	-8.845140796320534	-4.239020852925879	-13.084161649246413	484.173265000971	502.1524658384879	-1.297709923664122	7.022900763358779	-0.4580152671755725	0.18440779610194902	0.8380809595202399	0.9025487256371814	
1.7104017095915842E12	2.8260869565217392	-6.228260869565217	4.271739130434782	3942.8571428571427	128.0	128.0	-8.835404376435802	-4.189401172328136	-13.024805548763938	484.17189469002426	502.1642216639783	-7.236641221374046	6.351145038167939	-0.6564885496183206	0.17841079460269865	0.8365817091454273	0.9220389805097451	
1.7104017096111162E12	2.8478260869565215	-6.260869565217391	4.184782608695652	3944.322344322344	128.0	128.0	-8.807060576326917	-4.141223924305907	-12.948284500632823	484.1712455953653	502.18730058518656	-7.114503816793893	5.633587786259541	-1.1755725190839694	0.1874062968515742	0.8380809595202399	0.9205397301349325	
1.7104017096306482E12	2.9239130434782608	-6.293478260869565	4.1521739130434785	3920.879120879121	128.0	128.0	-8.79501626432136	-4.159903426158836	-12.954919690480196	484.16958679790343	502.2196110748781	-6.091603053435114	6.33587786259542	-1.2061068702290076	0.17691154422788605	0.8455772113943029	0.9175412293853074	
1.71040170965018E12	2.869565217391304	-6.282608695652174	4.076086956521739	3944.322344322344	128.0	128.0	-8.792059277541552	-4.105740082948218	-12.89779936048977	484.17045225744874	502.2397330093066	-5.465648854961832	7.603053435114504	-1.3282442748091603	0.18590704647676162	0.8320839580209894	0.9220389805097451	
1.710401709669712E12	2.793478260869565	-6.25	4.065217391304348	3942.8571428571427	128.0	128.0	-8.780231330422323	-4.096147906321038	-12.876379236743361	484.16576435157833	502.2992333530466	-5.526717557251908	7.694656488549618	-1.1450381679389312	0.17091454272863568	0.8500749625187406	0.9085457271364318	
1.7104017096892437E12	2.7717391304347827	-6.217391304347826	4.043478260869565	3932.6007326007325	128.0	128.0	-8.748930543533628	-4.083382378027723	-12.832312921561352	484.16352858108627	502.321302571452	-5.6183206106870225	6.931297709923664	-0.7938931297709924	0.18440779610194902	0.8455772113943029	0.9100449775112444	
1.7104017097087756E12	2.760869565217391	-6.228260869565217	4.054347826086956	3944.322344322344	128.0	128.0	-8.747920840730767	-4.052009469510255	-12.799930310241022	484.1611485673367	502.2781017158153	-5.923664122137405	7.083969465648854	-0.4580152671755725	0.17391304347826086	0.8440779610194902	0.9115442278860569	
1.7104017097283074E12	2.8152173913043477	-6.25	4.032608695652174	3944.322344322344	128.0	128.0	-8.789751385420727	-4.103360069198617	-12.893111454619344	484.1630237296848	502.2166540880983	-6.3969465648854955	6.778625954198473	-0.3053435114503817	0.17841079460269865	0.8500749625187406	0.9145427286356821	
1.7104017097478394E12	2.8152173913043477	-6.217391304347826	3.9565217391304346	3939.9267399267396	128.0	128.0	-8.82105217230942	-4.181251428276472	-13.002303600585892	484.1610043240791	502.1813144899982	-5.770992366412213	6.99236641221374	0.061068702290076333	0.18440779610194902	0.841079460269865	0.9130434782608695	
1.7104017097673713E12	2.793478260869565	-6.260869565217391	3.9456521739130435	3944.322344322344	128.0	128.0	-8.831221321966806	-4.2173122426643666	-13.048533564631173	484.1589849184734	502.1722992864012	-5.022900763358779	6.6106870229007635	0.22900763358778625	0.1664167916041979	0.8395802098950524	0.9085457271364318	
1.710401709786903E12	2.8152173913043477	-6.282608695652174	4.054347826086956	3920.879120879121	128.0	128.0	-8.831365565224358	-4.236135987774848	-13.067501552999206	484.16136493222297	502.1721550431437	-3.5572519083969465	7.2824427480916025	0.366412213740458	0.16941529235382308	0.8380809595202399	0.9130434782608695	
1.710401709806435E12	2.8478260869565215	-6.217391304347826	3.902173913043478	3945.7875457875457	128.0	128.0	-8.837423782041524	-4.195964240546733	-13.033388022588257	484.1639613108589	502.1636446909481	-3.969465648854962	6.045801526717557	0.6870229007633587	0.17841079460269865	0.8470764617691154	0.9115442278860569	
1.7104017098259668E12	2.760869565217391	-6.25	4.021739130434782	3945.7875457875457	128.0	128.0	-8.814489104090823	-4.198993348955316	-13.013482453046139	484.16107644570786	502.1792229627637	-5.7251908396946565	7.465648854961832	0.6259541984732824	0.17091454272863568	0.8290854572713643	0.9085457271364318	
1.7104017098454988E12	2.858695652173913	-6.25	3.9565217391304346	3931.135531135531	128.0	128.0	-8.799343562047907	-4.18810298301017	-12.987446545058077	484.164249797374	502.21182193897033	-5.068702290076335	6.534351145038167	0.7938931297709924	0.191904047976012	0.8380809595202399	0.9130434782608695	
1.7104017098650305E12	2.902173913043478	-6.282608695652174	3.9565217391304346	3944.322344322344	128.0	128.0	-8.831221321966806	-4.175337454716857	-13.006558776683663	484.1637449459726	502.21182193897033	-5.49618320610687	7.190839694656488	0.7938931297709924	0.17241379310344826	0.8380809595202399	0.9175412293853074	
1.7104017098845625E12	2.858695652173913	-6.326086956521739	4.010869565217392	3944.322344322344	128.0	128.0	-8.808935738675087	-4.1035043124561685	-12.912440051131256	484.16381706760137	502.1970370050713	-5.847328244274809	7.877862595419847	0.7786259541984732	0.17391304347826086	0.8365817091454273	0.8935532233883058	
1.7104017099040945E12	2.8478260869565215	-6.293478260869565	4.076086956521739	3942.8571428571427	128.0	128.0	-8.794944142692584	-3.976498124182001	-12.771442266874585	484.16662981112364	502.17691507064285	-3.8167938931297707	7.374045801526718	0.8244274809160305	0.17841079460269865	0.8365817091454273	0.9190404797601199	
1.7104017099236262E12	2.8260869565217392	-6.293478260869565	4.076086956521739	3944.322344322344	128.0	128.0	-8.773235532431071	-4.069607146931546	-12.842842679362617	484.16136493222297	502.18730058518656	-3.16030534351145	6.824427480916031	0.7786259541984732	0.1664167916041979	0.8365817091454273	0.9085457271364318	
1.7104017099431582E12	2.8369565217391304	-6.217391304347826	4.021739130434782	3920.879120879121	128.0	128.0	-8.809729076591621	-4.158605236840872	-12.968334313432493	484.16360070271503	502.21744742601487	-3.541984732824427	6.625954198473282	0.6412213740458015	0.17691154422788605	0.841079460269865	0.9175412293853074	
1.71040170996269E12	2.858695652173913	-6.173913043478261	3.9456521739130435	3944.322344322344	128.0	128.0	-8.858627540901606	-4.227842000465632	-13.086469541367238	484.16360070271503	502.22026016953714	-4.549618320610687	7.404580152671755	0.7480916030534351	0.18440779610194902	0.841079460269865	0.9175412293853074	
1.710401709982222E12	2.869565217391304	-6.195652173913043	3.9239130434782608	3944.322344322344	128.0	128.0	-8.837568025299076	-4.22582259485991	-13.063390620158986	484.1627352431697	502.2244432240061	-5.206106870229007	7.511450381679389	1.129770992366412	0.19040479760119938	0.8245877061469266	0.9010494752623688	
1.7104017100017537E12	2.8478260869565215	-6.282608695652174	4.032608695652174	3928.205128205128	128.0	128.0	-8.828624943330878	-4.24414148856896	-13.072766431899838	484.1608600808216	502.247305780328	-6.1679389312977095	7.648854961832061	0.8091603053435115	0.17691154422788605	0.848575712143928	0.9235382308845577	
1.7104017100212856E12	2.8369565217391304	-6.260869565217391	3.9565217391304346	3945.7875457875457	128.0	128.0	-8.709552134222047	-4.222649243193775	-12.932201377415822	484.15941764824606	502.2698798501349	-5.450381679389313	7.450381679389313	0.6106870229007634	0.1829085457271364	0.8290854572713643	0.9190404797601199	
1.7104017100408176E12	2.858695652173913	-6.228260869565217	3.902173913043478	3944.322344322344	128.0	128.0	-8.576992580532144	-3.000404000330448	-11.577396580862592	484.15941764824606	501.40615122391597	-5.358778625954198	7.206106870229007	0.9465648854961831	0.1829085457271364	0.8290854572713643	0.9220389805097451	
1.7104017100603494E12	2.8260869565217392	-6.282608695652174	4.1521739130434785	3944.322344322344	128.0	128.0	-8.815643050151236	-4.223875310882963	-13.0395183610342	484.1636728243438	502.117054118759	-6.778625954198473	7.083969465648854	0.3511450381679389	0.18440779610194902	0.8350824587706147	0.9055472263868065	
1.7104017100798813E12	2.8369565217391304	-6.228260869565217	3.8043478260869565	3944.322344322344	128.0	128.0	-8.785568330951731	-4.090233932761423	-12.875802263713155	484.1651873785481	502.22978022453555	-8.916030534351144	5.587786259541985	0.6870229007633587	0.17991004497751123	0.8305847076461769	0.9130434782608695	
1.710401710099413E12	2.9130434782608696	-6.33695652173913	4.206521739130435	3920.879120879121	128.0	128.0	-8.79501626432136	-4.07227564719625	-12.86729191151761	484.16107644570786	502.2500464022215	-7.358778625954198	5.66412213740458	0.5343511450381679	0.1829085457271364	0.8110944527736131	0.9115442278860569	
1.710401710118945E12	2.782608695652174	-6.260869565217391	3.9891304347826084	3944.322344322344	128.0	128.0	-8.79501626432136	-4.076314458407694	-12.871330722729054	484.16107644570786	502.28726116266984	-1.450381679389313	9.603053435114504	0.6564885496183206	0.17841079460269865	0.8215892053973013	0.9220389805097451	
1.7104017101384768E12	2.8369565217391304	-6.1521739130434785	4.010869565217392	3944.322344322344	128.0	128.0	-8.785856817466835	-4.0627555921978455	-12.84861240966468	484.1625188782834	502.2944733255474	-6.045801526717557	8.122137404580153	1.099236641221374	0.1829085457271364	0.8395802098950524	0.9145427286356821	
1.7104017101580088E12	2.8152173913043477	-6.33695652173913	4.0	3928.205128205128	128.0	128.0	-8.781601641369063	-3.978950259560378	-12.76055190092944	484.15848006707193	502.30983523247664	-8.473282442748092	8.183206106870228	1.0687022900763359	0.1664167916041979	0.8215892053973013	0.9145427286356821	
1.7104017101775405E12	2.8369565217391304	-6.3478260869565215	4.021739130434782	3945.7875457875457	128.0	128.0	-8.791554426140122	-3.962506528199498	-12.75406095433962	484.16324009457117	502.3342123430029	-6.6106870229007635	7.740458015267175	1.5267175572519083	0.18440779610194902	0.8350824587706147	0.9205397301349325	
1.7104017101970725E12	2.8478260869565215	-6.33695652173913	3.891304347826087	3942.8571428571427	128.0	128.0	-8.77395674871883	-3.8968758460135273	-12.670832594732357	484.1601388645338	502.37690834723816	-5.541984732824427	7.312977099236641	1.1450381679389312	0.18440779610194902	0.8350824587706147	0.9130434782608695	
1.7104017102166045E12	2.8369565217391304	-6.3478260869565215	3.9456521739130435	3944.322344322344	128.0	128.0	-8.748858421904853	-3.8820187904857164	-12.630877212390569	484.16122068896544	502.39984302518883	-4.961832061068702	7.099236641221374	1.1755725190839694	0.1829085457271364	0.8290854572713643	0.9190404797601199	
1.7104017102361362E12	2.858695652173913	-6.293478260869565	3.902173913043478	3945.7875457875457	128.0	128.0	-8.752536624972418	-3.861319883027063	-12.61385650799948	484.15884067521586	502.4242201357151	-3.83206106870229	6.702290076335878	0.6717557251908397	0.17841079460269865	0.8365817091454273	0.9220389805097451	
1.7104017102556682E12	2.858695652173913	-6.271739130434782	3.9239130434782608	3942.8571428571427	128.0	128.0	-8.761840315084495	-3.8164602299285217	-12.578300545013017	484.15905704010214	502.414267350944	-3.6488549618320607	7.236641221374046	0.8244274809160305	0.16941529235382308	0.8530734632683658	0.9280359820089955	
1.7104017102752E12	2.8369565217391304	-6.282608695652174	3.8260869565217392	3944.322344322344	128.0	128.0	-8.768691869818195	-3.7976364848180406	-12.566328354636235	484.1598503780187	502.3593827914456	-4.763358778625954	6.946564885496183	0.9618320610687022	0.17091454272863568	0.8395802098950524	0.9190404797601199	
1.710401710294732E12	2.8478260869565215	-6.25	3.858695652173913	3944.322344322344	128.0	128.0	-8.829057673103533	-3.8895194398783968	-12.71857711298193	484.1576146075266	502.30031517747824	-4.198473282442748	6.244274809160305	0.6412213740458015	0.17241379310344826	0.8305847076461769	0.9235382308845577	
1.7104017103142637E12	2.8478260869565215	-6.206521739130435	3.8260869565217392	3925.274725274725	128.0	128.0	-8.851415378024027	-3.934018484833061	-12.785433862857088	484.1567491479813	502.2823568919131	-4.427480916030534	5.770992366412213	0.564885496183206	0.17991004497751123	0.8275862068965517	0.9235382308845577	
1.7104017103337957E12	2.8260869565217392	-6.271739130434782	3.6630434782608696	3944.322344322344	128.0	128.0	-8.878821596958828	-3.9495967566486314	-12.828418353607459	484.15884067521586	502.2751447290355	-4.152671755725191	6.488549618320611	0.916030534351145	0.17841079460269865	0.8395802098950524	0.9190404797601199	
1.7104017103533276E12	2.880434782608696	-6.195652173913043	3.8369565217391304	3944.322344322344	128.0	128.0	-8.868436082415114	-3.9371918364991956	-12.80562791891431	484.1594897698748	502.2793999051333	-1.5267175572519083	6.564885496183206	1.114503816793893	0.1829085457271364	0.8365817091454273	0.9115442278860569	
1.7104017103728594E12	2.75	-6.228260869565217	3.717391304347826	3942.8571428571427	128.0	128.0	-8.87398944783085	-3.9134638206319607	-12.78745326846281	484.16122068896544	502.2822847702843	-5.557251908396946	7.175572519083969	1.1603053435114503	0.1874062968515742	0.8530734632683658	0.9205397301349325	
1.7104017103923914E12	2.891304347826087	-6.217391304347826	3.9239130434782608	3944.322344322344	128.0	128.0	-8.845501404464413	-3.95219313528456	-12.797694539748973	484.1636728243438	502.2909393657374	-4.3206106870229	5.740458015267175	1.0229007633587786	0.17391304347826086	0.8320839580209894	0.9220389805097451	
1.710401710411923E12	2.869565217391304	-6.260869565217391	3.782608695652174	3944.322344322344	128.0	128.0	-8.851920229425458	-3.9314221061971324	-12.78334233562259	484.1637449459726	502.28120294585267	-4.427480916030534	6.717557251908397	1.1755725190839694	0.1829085457271364	0.8320839580209894	0.9250374812593702	
1.710401710431455E12	2.8369565217391304	-6.33695652173913	3.869565217391304	3944.322344322344	128.0	128.0	-8.837712268556627	-3.8741575329491535	-12.711869801505781	484.1631679729424	502.2850253921778	-4.473282442748092	7.755725190839694	1.0381679389312977	0.17241379310344826	0.815592203898051	0.9175412293853074	
1.7104017104509868E12	2.8152173913043477	-6.326086956521739	3.858695652173913	3944.322344322344	128.0	128.0	-8.851920229425458	-3.7928764573188385	-12.644796686744296	484.16475464877544	502.26028767350766	-3.7709923664122136	8.320610687022901	1.5114503816793892	0.17691154422788605	0.8380809595202399	0.9130434782608695	
1.7104017104705188E12	2.8369565217391304	-6.3478260869565215	3.902173913043478	3925.274725274725	128.0	128.0	-8.826821902611483	-3.760493845998507	-12.58731574860999	484.1639613108589	502.228986886619	-3.114503816793893	7.419847328244274	1.3740458015267174	0.17241379310344826	0.841079460269865	0.9310344827586207	
1.7104017104900508E12	2.793478260869565	-6.293478260869565	3.891304347826087	3945.7875457875457	128.0	128.0	-8.844419580032776	-3.89117823734024	-12.735597817373016	484.16360070271503	502.25588825415235	-3.282442748091603	7.251908396946565	1.66412213740458	0.17391304347826086	0.8290854572713643	0.9220389805097451	
1.7104017105095825E12	2.8260869565217392	-6.293478260869565	3.8804347826086953	3944.322344322344	128.0	128.0	-8.884735570518442	-4.00909710038866	-12.893832670907102	484.1621582701395	502.26641801195365	-3.8931297709923665	7.480916030534351	1.9083969465648853	0.1634182908545727	0.8395802098950524	0.9220389805097451	
1.7104017105291145E12	2.8369565217391304	-6.293478260869565	3.8260869565217392	3945.7875457875457	128.0	128.0	-8.898582923243396	-4.010539532964174	-12.90912245620757	484.16706254089627	502.25855675441704	-3.709923664122137	7.3893129770992365	2.015267175572519	0.17241379310344826	0.8455772113943029	0.9175412293853074	
1.7104017105486462E12	2.8260869565217392	-6.282608695652174	3.8478260869565215	3944.322344322344	128.0	128.0	-8.899448382788705	-3.996764301867998	-12.896212684656703	484.16677405438116	502.2650477010069	-3.49618320610687	7.343511450381679	1.5267175572519083	0.17691154422788605	0.8275862068965517	0.9100449775112444	
1.7104017105681782E12	2.8260869565217392	-6.282608695652174	3.8260869565217392	3922.344322344322	128.0	128.0	-8.9081029782418	-4.24363663716753	-13.15173961540933	484.15992249964745	502.39984302518883	-3.83206106870229	7.32824427480916	1.7862595419847327	0.1874062968515742	0.8305847076461769	0.9205397301349325	
1.71040171058771E12	2.8478260869565215	-6.25	3.782608695652174	3945.7875457875457	128.0	128.0	-8.66000457525308	-3.30432454399163	-11.96432911924471	484.1532151881713	501.741011946322	-5.068702290076335	7.526717557251908	1.8625954198473282	0.191904047976012	0.841079460269865	0.9130434782608695	
1.710401710607242E12	2.8478260869565215	-6.25	3.891304347826087	3944.322344322344	128.0	128.0	-8.963997240543037	-3.9948891395198274	-12.958886380062864	484.1567491479813	501.94764041276466	-5.038167938931298	6.458015267175572	1.5267175572519083	0.17091454272863568	0.8320839580209894	0.9295352323838081	
1.710401710626774E12	2.7717391304347827	-6.293478260869565	3.5978260869565215	3925.274725274725	128.0	128.0	-8.843049269086036	-3.9832775572869252	-12.826326826372961	484.1580473372993	502.24694517218416	-6.946564885496183	6.549618320610687	1.0076335877862594	0.17241379310344826	0.8275862068965517	0.9130434782608695	
1.7104017106463057E12	2.880434782608696	-6.326086956521739	4.021739130434782	3923.8095238095234	128.0	128.0	-8.8786052320725	-3.9883981929300063	-12.867003425002506	484.15581156680724	502.30190185331134	-8.106870229007633	4.198473282442748	1.083969465648855	0.17841079460269865	0.8395802098950524	0.9250374812593702	
1.7104017106658376E12	2.793478260869565	-6.4021739130434785	3.793478260869565	3945.7875457875457	128.0	128.0	-8.871465190823697	-4.0026782754276145	-12.874143466251311	484.15638853983745	502.3350778025482	-1.8015267175572518	8.030534351145038	1.4045801526717556	0.1829085457271364	0.8365817091454273	0.9250374812593702	
1.7104017106853694E12	2.793478260869565	-6.217391304347826	3.8478260869565215	3944.322344322344	128.0	128.0	-8.881129489079653	-3.9827727058854947	-12.863902194965148	484.155883688436	502.3397657084186	-4.549618320610687	10.48854961832061	2.1221374045801524	0.18440779610194902	0.8380809595202399	0.9130434782608695	
1.7104017107049014E12	2.75	-6.304347826086956	3.7717391304347827	3928.205128205128	128.0	128.0	-8.86713789309715	-3.964165325661341	-12.83130321875849	484.1589849184734	502.35714702095356	-6.580152671755725	8.931297709923664	1.9389312977099236	0.1829085457271364	0.8290854572713643	0.9115442278860569	
1.710401710724433E12	2.782608695652174	-6.304347826086956	3.869565217391304	3944.322344322344	128.0	128.0	-8.841895323025623	-3.942528837028604	-12.784424160054227	484.15797521567055	502.35671429118094	-4.931297709923664	9.038167938931297	2.0763358778625953	0.17241379310344826	0.8380809595202399	0.9310344827586207	
1.710401710743965E12	2.793478260869565	-6.326086956521739	3.8369565217391304	3945.7875457875457	128.0	128.0	-8.834683160148044	-3.893486129461065	-12.72816928960911	484.15884067521586	502.37972109076037	-3.541984732824427	10.259541984732824	2.2748091603053435	0.17841079460269865	0.8365817091454273	0.9295352323838081	
1.710401710763497E12	2.760869565217391	-6.358695652173913	3.8369565217391304	3942.8571428571427	128.0	128.0	-8.82703826749781	-3.869541748707503	-12.696580016205314	484.17045225744874	502.40128545776435	-1.9694656488549618	9.755725190839694	2.4885496183206106	0.17391304347826086	0.8185907046476761	0.9295352323838081	
1.7104017107830288E12	2.75	-6.3478260869565215	3.8043478260869565	3923.8095238095234	128.0	128.0	-8.81780669901451	-3.8318942584865407	-12.64970095750105	484.1723995414257	502.41282491836847	-2.213740458015267	8.259541984732824	2.595419847328244	0.17241379310344826	0.8350824587706147	0.9235382308845577	
1.7104017108025608E12	2.7391304347826084	-6.315217391304348	3.7717391304347827	3945.7875457875457	128.0	128.0	-8.80648360329671	-3.7909291733418904	-12.5974127766386	484.1711013521077	502.3987612007572	-2.1068702290076335	8.030534351145038	2.6564885496183206	0.17091454272863568	0.8470764617691154	0.9370314842578711	
1.7104017108220925E12	2.7282608695652173	-6.293478260869565	3.782608695652174	3944.322344322344	128.0	128.0	-8.829923132648842	-3.7754230231550956	-12.605346155803938	484.1695146762747	502.32562986917856	-0.9618320610687022	8.50381679389313	2.427480916030534	0.1829085457271364	0.8365817091454273	0.9250374812593702	
1.7104017108416245E12	2.7065217391304346	-6.304347826086956	3.793478260869565	3942.8571428571427	128.0	128.0	-8.866921528210822	-3.850285273824367	-12.71720680203519	484.17160620350916	502.26757195801406	0.4580152671755725	7.8473282442748085	2.5801526717557253	0.17091454272863568	0.8290854572713643	0.9220389805097451	
1.7104017108611562E12	2.75	-6.282608695652174	3.8369565217391304	3944.322344322344	128.0	128.0	-8.866921528210822	-3.920892348395867	-12.78781387660669	484.1729765144559	502.2263183863543	2.6717557251908395	7.312977099236641	2.381679389312977	0.17241379310344826	0.8305847076461769	0.9130434782608695	
1.7104017108806882E12	2.75	-6.304347826086956	3.75	3920.879120879121	128.0	128.0	-8.890216814305402	-3.9306287682805987	-12.820845582586001	484.1714619602516	502.20677342495605	1.3587786259541985	6.870229007633587	2.229007633587786	0.18440779610194902	0.8305847076461769	0.9205397301349325	
1.7104017109002202E12	2.7391304347826084	-6.358695652173913	4.010869565217392	3917.948717948718	128.0	128.0	-8.888485895214783	-3.9225511458577103	-12.811037041072494	484.1717504467667	502.1941521399203	2.351145038167939	8.259541984732824	2.4122137404580153	0.16941529235382308	0.841079460269865	0.9205397301349325	
1.710401710919752E12	2.6956521739130435	-6.315217391304348	3.869565217391304	3944.322344322344	128.0	128.0	-8.884302840745788	-3.8973806974149596	-12.781683538160747	484.173265000971	502.1882381663607	1.1450381679389312	7.6183206106870225	2.763358778625954	0.191904047976012	0.8380809595202399	0.9175412293853074	
1.710401710939284E12	2.652173913043478	-6.304347826086956	3.9782608695652173	3922.344322344322	128.0	128.0	-8.86129604116631	-3.8978134271876144	-12.759109468353925	484.17131771699405	502.17936720602125	1.2671755725190839	6.442748091603053	2.229007633587786	0.18590704647676162	0.8545727136431783	0.9325337331334332	
1.7104017109588157E12	2.7065217391304346	-6.315217391304348	3.9130434782608696	3945.7875457875457	128.0	128.0	-8.855598432493023	-3.8871394261287957	-12.742737858621819	484.1733371225998	502.1797278141651	0.8091603053435115	5.877862595419847	1.83206106870229	0.18440779610194902	0.8305847076461769	0.9025487256371814	
1.7104017109783477E12	2.8043478260869565	-6.260869565217391	3.9456521739130435	3945.7875457875457	128.0	128.0	-8.855598432493023	-3.878124222531822	-12.733722655024845	484.172615906312	502.16544773166754	2.9618320610687023	5.66412213740458	1.816793893129771	0.18590704647676162	0.8245877061469266	0.9145427286356821	
1.7104017109978794E12	2.684782608695652	-6.304347826086956	3.9891304347826084	3944.322344322344	128.0	128.0	-8.832375268027219	-3.8202826762536386	-12.652657944280858	484.1725437846832	502.1567210145856	1.9236641221374045	8.549618320610687	1.9083969465648853	0.17391304347826086	0.8290854572713643	0.9220389805097451	
1.7104017110174114E12	2.641304347826087	-6.326086956521739	4.054347826086956	3944.322344322344	128.0	128.0	-8.821845510225954	-3.648849564653583	-12.470695074879536	484.1731928793422	502.11229409125974	2.6259541984732824	7.557251908396946	2.0610687022900764	0.17091454272863568	0.8245877061469266	0.9040479760119939	
1.7104017110369434E12	2.6630434782608696	-6.293478260869565	4.08695652173913	3944.322344322344	128.0	128.0	-8.814416982462047	-3.706618989302992	-12.52103597176504	484.1742025821451	502.09296549474783	2.717557251908397	5.374045801526718	1.83206106870229	0.17091454272863568	0.8365817091454273	0.9190404797601199	
1.710401711056475E12	2.652173913043478	-6.33695652173913	4.119565217391305	3944.322344322344	128.0	128.0	-8.847376566812583	-3.876753911585082	-12.724130478397665	484.17247166305447	502.11914564599346	1.7251908396946565	5.2824427480916025	1.8625954198473282	0.17841079460269865	0.8365817091454273	0.9250374812593702	
1.710401711076007E12	2.75	-6.33695652173913	4.076086956521739	3944.322344322344	128.0	128.0	-8.882067070253738	-3.945990675209842	-12.82805774546358	484.1753565282055	502.12513174118186	1.83206106870229	4.99236641221374	1.4198473282442747	0.19040479760119938	0.8365817091454273	0.9190404797601199	
1.7104017110955388E12	2.75	-6.315217391304348	4.065217391304348	3923.8095238095234	128.0	128.0	-8.904569018431786	-3.9384179041883822	-12.842986922620168	484.1793232177882	502.1237614302351	2.091603053435114	5.83206106870229	1.9083969465648853	0.16941529235382308	0.8305847076461769	0.9025487256371814	
1.7104017111150708E12	2.75	-6.282608695652174	4.076086956521739	3925.274725274725	128.0	128.0	-8.887620435669474	-4.0023176672837355	-12.88993810295321	484.17809715009895	502.1490761219354	1.8015267175572518	6.33587786259542	1.4961832061068703	0.18590704647676162	0.8365817091454273	0.9295352323838081	
1.7104017111346025E12	2.717391304347826	-6.25	4.032608695652174	3944.322344322344	128.0	128.0	-8.887620435669474	-4.203537011568191	-13.091157447237665	484.17730381218246	502.2635331468026	0.9618320610687022	7.3893129770992365	1.9083969465648853	0.17391304347826086	0.8320839580209894	0.9190404797601199	
1.7104017111541345E12	2.7282608695652173	-6.25	4.010869565217392	3944.322344322344	128.0	128.0	-8.694045984035252	-2.7712014640809848	-11.465247448116237	484.1797559475608	501.1257423312357	0.2748091603053435	8.106870229007633	1.9236641221374045	0.17841079460269865	0.8395802098950524	0.9145427286356821	
1.7104017111736663E12	2.717391304347826	-6.239130434782608	4.184782608695652	3944.322344322344	128.0	128.0	-8.91957031721715	-4.012631060198672	-12.932201377415822	484.1790347312731	501.8173166295668	-1.4961832061068703	7.541984732824427	1.6946564885496183	0.191904047976012	0.841079460269865	0.9205397301349325	
1.7104017111931982E12	2.7065217391304346	-6.184782608695652	3.902173913043478	3944.322344322344	128.0	128.0	-8.862738473741826	-3.889014588476968	-12.751753062218794	484.178746244758	502.079406628538	-3.847328244274809	7.435114503816793	1.7099236641221374	0.18440779610194902	0.8275862068965517	0.9100449775112444	
1.7104017112127302E12	2.7391304347826084	-6.467391304347826	4.358695652173913	3944.322344322344	128.0	128.0	-8.864253027946118	-3.902068603285386	-12.766321631231504	484.17838563661405	502.0963552113003	-3.32824427480916	7.3893129770992365	1.6946564885496183	0.17991004497751123	0.8305847076461769	0.9130434782608695	
1.710401711232262E12	2.6956521739130435	-6.282608695652174	4.173913043478261	3944.322344322344	128.0	128.0	-8.822783091400039	-3.9313499845683566	-12.754133075968396	484.17852987987163	502.13176693102923	1.5877862595419847	7.099236641221374	1.3893129770992365	0.17241379310344826	0.841079460269865	0.9175412293853074	
1.710401711251794E12	2.652173913043478	-6.163043478260869	4.130434782608695	3922.344322344322	128.0	128.0	-8.814921833863478	-3.9146177666923716	-12.72953960055585	484.1786020015004	502.1434506348909	-0.8244274809160305	9.31297709923664	1.2671755725190839	0.17241379310344826	0.8305847076461769	0.9235382308845577	
1.7104017112713257E12	2.5869565217391304	-6.326086956521739	4.076086956521739	3944.322344322344	128.0	128.0	-8.824514010490658	-3.894928562036581	-12.719442572527239	484.1800444340759	502.14799429750377	-4.442748091603053	7.435114503816793	0.9923664122137404	0.17241379310344826	0.8305847076461769	0.9205397301349325	
1.7104017112908577E12	2.7282608695652173	-6.25	4.141304347826087	3944.322344322344	128.0	128.0	-8.798189615987495	-3.880864844425302	-12.679054460412797	484.1824244478255	502.1535476629195	-2.748091603053435	6.641221374045801	1.2061068702290076	0.19040479760119938	0.8395802098950524	0.9145427286356821	
1.7104017113103894E12	2.75	-6.271739130434782	4.108695652173913	3942.8571428571427	128.0	128.0	-8.79552111572279	-3.8447319084086313	-12.640253024131422	484.18098201525	502.173020502689	-2.778625954198473	8.687022900763358	0.916030534351145	0.20239880059970014	0.8380809595202399	0.9130434782608695	
1.7104017113299214E12	2.7065217391304346	-6.293478260869565	4.141304347826087	3944.322344322344	128.0	128.0	-8.776264640839655	-3.827783325646319	-12.604047966485973	484.1804050422198	502.21182193897033	-2.33587786259542	9.633587786259541	0.7938931297709924	0.17991004497751123	0.8350824587706147	0.9175412293853074	
