"sep=	"
Shimmer_6D72_TimestampSync_Unix_CAL	Shimmer_6D72_Accel_LN_X_CAL	Shimmer_6D72_Accel_LN_Y_CAL	Shimmer_6D72_Accel_LN_Z_CAL	Shimmer_6D72_Battery_CAL	Shimmer_6D72_ECG_EMG_Status1_CAL	Shimmer_6D72_ECG_EMG_Status2_CAL	Shimmer_6D72_ECG_LA-RA_24BIT_CAL	Shimmer_6D72_ECG_LL-LA_24BIT_CAL	Shimmer_6D72_ECG_LL-RA_24BIT_CAL	Shimmer_6D72_ECG_RESP_24BIT_CAL	Shimmer_6D72_ECG_Vx-RL_24BIT_CAL	Shimmer_6D72_Gyro_X_CAL	Shimmer_6D72_Gyro_Y_CAL	Shimmer_6D72_Gyro_Z_CAL	Shimmer_6D72_Mag_X_CAL	Shimmer_6D72_Mag_Y_CAL	Shimmer_6D72_Mag_Z_CAL	
ms	m/(s^2)	m/(s^2)	m/(s^2)	mV	no_units	no_units	mV	mV	mV	mV	mV	deg/s	deg/s	deg/s	local_flux	local_flux	local_flux	
1.7089455476561606E12	1.6956521739130435	-6.423913043478261	3.869565217391304	3989.7435897435894	128.0	128.0	3.2020560743875595	2.0255359441680842	5.227592018555644	484.8492610274865	599.2667632420973	-1.816793893129771	6.351145038167939	0.061068702290076333	-0.10494752623688156	0.41379310344827586	0.11394302848575712	
1.7089455476756924E12	1.6956521739130435	-6.369565217391304	3.902173913043478	3986.8131868131863	128.0	128.0	3.3027378681585633	1.9875278458032426	5.290265713961806	484.845871310934	599.1395406889368	-1.8778625954198473	6.244274809160305	0.2748091603053435	-0.11244377811094453	0.41379310344827586	0.11094452773613193	
1.7089455476952239E12	1.6956521739130435	-6.326086956521739	3.934782608695652	3988.278388278388	128.0	128.0	3.4029869321569124	1.880571470328745	5.2835584024856574	484.8467367704793	599.0562402077009	-2.030534351145038	6.519083969465648	0.5190839694656488	-0.11544227886056971	0.416791604197901	0.12443778110944527	
1.7089455477147554E12	1.6956521739130435	-6.369565217391304	3.9130434782608696	3989.7435897435894	128.0	128.0	3.415968825336555	1.8590792249535593	5.275048050290114	484.8427700808967	599.0470807608463	-1.5114503816793892	7.419847328244274	0.38167938931297707	-0.095952023988006	0.42278860569715143	0.11244377811094453	
1.708945547734287E12	1.7282608695652173	-6.391304347826087	3.9565217391304346	3966.300366300366	128.0	128.0	3.4144542711322634	1.8486937104098455	5.263147981542109	484.850703460062	599.0511916936865	-1.4961832061068703	7.709923664122137	0.3969465648854962	-0.1199400299850075	0.416791604197901	0.11094452773613193	
1.7089455477538186E12	1.6956521739130435	-6.413043478260869	3.8478260869565215	3963.369963369963	128.0	128.0	3.425272515448632	1.8362887902604097	5.261561305709042	484.8427700808967	599.051047450429	-1.2519083969465647	7.740458015267175	0.0916030534351145	-0.11244377811094453	0.40929535232383807	0.10644677661169415	
1.7089455477733503E12	1.6630434782608696	-6.33695652173913	3.8804347826086953	3989.7435897435894	128.0	128.0	3.419358541889017	1.8539585893104782	5.273317131199495	484.84313068904055	599.0447007470967	-0.916030534351145	7.450381679389313	0.5343511450381679	-0.12593703148425786	0.41079460269865065	0.12293853073463268	
1.7089455477928818E12	1.6521739130434783	-6.380434782608695	3.858695652173913	3988.278388278388	128.0	128.0	3.412506987155317	1.8497034132127066	5.262210400368024	484.84904466260014	599.0527062478908	-0.6412213740458015	7.7251908396946565	1.3740458015267174	-0.10344827586206896	0.4047976011994003	0.11244377811094453	
1.7089455478124136E12	1.6630434782608696	-6.369565217391304	3.858695652173913	3989.7435897435894	128.0	128.0	3.419719150032896	1.8510016025306708	5.270720752563567	484.85077558169075	599.0493886529671	0.564885496183206	7.755725190839694	1.4961832061068703	-0.095952023988006	0.41079460269865065	0.1199400299850075	
1.708945547831945E12	1.6956521739130435	-6.358695652173913	3.9565217391304346	3989.7435897435894	128.0	128.0	3.409405757117958	1.848549467152294	5.257955224270252	484.85293923055406	599.0573220321324	-1.3740458015267174	7.679389312977099	1.3282442748091603	-0.10644677661169415	0.4047976011994003	0.10494752623688156	
1.7089455478514766E12	1.684782608695652	-6.293478260869565	3.891304347826087	3988.278388278388	128.0	128.0	3.409477878746734	1.8593677114686624	5.268845590215396	484.8540210549857	599.0439795308089	-0.9923664122137404	7.450381679389313	1.4351145038167938	-0.1184407796101949	0.4047976011994003	0.1199400299850075	
1.7089455478710083E12	1.7065217391304348	-6.326086956521739	4.119565217391305	3989.7435897435894	128.0	128.0	3.404212999846101	1.8430682233653335	5.247281223211434	484.8530113521828	599.0493165313384	-1.450381679389313	8.030534351145038	1.099236641221374	-0.11094452773613193	0.4077961019490255	0.12293853073463268	
1.7089455478905398E12	1.6739130434782608	-6.413043478260869	4.065217391304348	3964.8351648351645	128.0	128.0	3.3977220532562797	1.864488347111744	5.262210400368024	484.8561125822202	599.0342431109242	-1.7251908396946565	8.931297709923664	0.7175572519083969	-0.10494752623688156	0.424287856071964	0.10644677661169415	
1.7089455479100715E12	1.6630434782608696	-6.434782608695652	4.010869565217392	3989.7435897435894	128.0	128.0	3.390365647121149	1.8917503227889925	5.282115969910142	484.863252623469	599.0309255160005	-1.7099236641221374	9.129770992366412	1.0229007633587786	-0.11544227886056971	0.41379310344827586	0.12893553223388304	
1.708945547929603E12	1.6630434782608696	-6.391304347826087	3.9565217391304346	3988.278388278388	128.0	128.0	3.3005742192952896	1.9800271964105605	5.28060141570585	484.86426232627184	599.0390752600522	-0.2900763358778626	8.977099236641221	0.8396946564885496	-0.1199400299850075	0.41379310344827586	0.11094452773613193	
1.7089455479491348E12	1.7065217391304348	-6.3478260869565215	3.9130434782608696	3988.278388278388	128.0	128.0	3.3015839220981507	1.9795944666379057	5.281178388736056	484.8641902046431	599.009866000398	-0.015267175572519083	8.82442748091603	0.7175572519083969	-0.11394302848575712	0.4077961019490255	0.11244377811094453	
1.7089455479686663E12	1.7391304347826086	-6.326086956521739	3.9782608695652173	3961.9047619047615	128.0	128.0	3.364546104019416	1.878696307980574	5.24324241199999	484.8707532728617	599.0161405821015	-0.6564885496183206	7.893129770992366	0.47328244274809156	-0.11244377811094453	0.416791604197901	0.11394302848575712	
1.7089455479881978E12	1.6956521739130435	-6.315217391304348	3.902173913043478	3986.8131868131863	128.0	128.0	3.3961353774232124	1.8071516522349902	5.203287029658203	484.87536905710334	599.0196024202827	-1.2213740458015268	7.709923664122137	0.38167938931297707	-0.11544227886056971	0.40629685157421286	0.12143928035982009	
1.7089455480077295E12	1.6630434782608696	-6.293478260869565	3.9239130434782608	3960.43956043956	128.0	128.0	3.3933226339009566	1.7883279071245082	5.181650541025465	484.88474486884417	599.0257327587286	-1.4351145038167938	8.229007633587786	0.6259541984732824	-0.12893553223388304	0.4077961019490255	0.11244377811094453	
1.708945548027261E12	1.6304347826086956	-6.304347826086956	4.043478260869565	3989.7435897435894	128.0	128.0	3.3872644170837902	1.8163832207182913	5.2036476378020815	484.8891442881995	599.0136884467231	-2.229007633587786	7.633587786259541	0.8091603053435115	-0.11094452773613193	0.39730134932533734	0.1199400299850075	
1.7089455480467927E12	1.6739130434782608	-6.369565217391304	4.108695652173913	3964.8351648351645	128.0	128.0	3.436090759765001	1.8409045745020598	5.276995334267061	484.8902261126311	599.0543650453526	-1.648854961832061	6.946564885496183	0.47328244274809156	-0.10044977511244378	0.4017991004497751	0.11394302848575712	
1.7089455480663242E12	1.6630434782608696	-6.33695652173913	4.010869565217392	3991.208791208791	128.0	128.0	2.612029029372815	2.733409730602471	5.345438759975286	484.8970055457361	599.0767948719019	-0.7022900763358778	5.847328244274809	0.6717557251908397	-0.1184407796101949	0.4077961019490255	0.10794602698650674	
1.708945548085856E12	1.641304347826087	-6.304347826086956	3.967391304347826	3989.7435897435894	128.0	128.0	2.8022137644545753	2.561688132487313	5.363901896941888	484.898303735054	598.6957041854506	-0.732824427480916	5.099236641221374	1.083969465648855	-0.10494752623688156	0.41379310344827586	0.1169415292353823	
1.7089455481053875E12	1.6521739130434783	-6.293478260869565	3.891304347826087	3988.278388278388	128.0	128.0	3.238044767146679	1.8610265089305056	5.099071276077185	484.90349649232587	599.0847282510672	-1.297709923664122	4.549618320610687	0.8549618320610687	-0.12143928035982009	0.4047976011994003	0.1199400299850075	
1.708945548124919E12	1.6195652173913042	-6.25	4.184782608695652	3989.7435897435894	128.0	128.0	3.300429976037738	1.9420190980457184	5.242449074083456	484.9075353035373	599.0681402764488	-1.4351145038167938	5.801526717557252	0.916030534351145	-0.10794602698650674	0.4017991004497751	0.11394302848575712	
1.7089455481444507E12	1.641304347826087	-6.25	3.9239130434782608	3988.278388278388	128.0	128.0	3.3168737073986185	1.9223298933899273	5.239203600788546	484.91503595293	599.0929501167477	-2.030534351145038	6.015267175572519	0.916030534351145	-0.12443778110944527	0.4017991004497751	0.1169415292353823	
1.7089455481639822E12	1.6630434782608696	-6.315217391304348	3.934782608695652	3988.278388278388	128.0	128.0	3.305622733309595	1.9463463957722658	5.251969129081861	484.916334142248	599.0913634409146	-2.16793893129771	5.450381679389313	1.6335877862595418	-0.1199400299850075	0.40629685157421286	0.11394302848575712	
1.708945548183514E12	1.7065217391304348	-6.260869565217391	3.9891304347826084	3988.278388278388	128.0	128.0	3.2899002182364727	1.9568040319447553	5.246704250181228	484.9167668720206	599.1131441728049	-2.381679389312977	5.083969465648854	1.7251908396946565	-0.10494752623688156	0.40929535232383807	0.1169415292353823	
1.7089455482030454E12	1.7065217391304348	-6.271739130434782	3.9891304347826084	3963.369963369963	128.0	128.0	3.2633594588469816	1.95536159936924	5.218721058216222	484.9203008318306	599.1209333087127	-3.709923664122137	3.801526717557252	1.3740458015267174	-0.11544227886056971	0.4017991004497751	0.11394302848575712	
1.7089455482225771E12	1.717391304347826	-6.304347826086956	4.010869565217392	3989.7435897435894	128.0	128.0	3.2255677253684674	1.9738968579646183	5.199464583333086	484.9231135753529	599.1515850009424	-3.66412213740458	2.198473282442748	1.3587786259541985	-0.10344827586206896	0.41829085457271364	0.10794602698650674	
1.7089455482421086E12	1.684782608695652	-6.315217391304348	4.065217391304348	3988.278388278388	128.0	128.0	3.173856517536225	1.9835611562205742	5.157417673756799	484.9302536166017	599.2358951849812	-3.9541984732824424	2.549618320610687	1.099236641221374	-0.11394302848575712	0.4047976011994003	0.11544227886056971	
1.7089455482616401E12	1.6521739130434783	-6.326086956521739	4.108695652173913	3988.278388278388	128.0	128.0	3.128852621180132	1.9953169817110274	5.124169602891159	484.93357121152536	599.2868851765257	-5.297709923664122	3.2519083969465647	1.2213740458015268	-0.1184407796101949	0.4077961019490255	0.10794602698650674	
1.7089455482811719E12	1.6739130434782608	-6.326086956521739	4.0	3988.278388278388	128.0	128.0	3.057740695207202	2.036137823598126	5.093878518805328	484.9367445631915	599.325398126292	-5.893129770992366	4.5038167938931295	1.3282442748091603	-0.11394302848575712	0.4047976011994003	0.11244377811094453	
1.7089455483007034E12	1.717391304347826	-6.271739130434782	3.9565217391304346	3989.7435897435894	128.0	128.0	3.070145615356638	2.038662080605278	5.108807695961916	484.9384754822821	599.2696481072484	-5.49618320610687	4.702290076335878	1.8625954198473282	-0.11544227886056971	0.40629685157421286	0.1169415292353823	
1.708945548320235E12	1.75	-6.25	4.021739130434782	3988.278388278388	128.0	128.0	3.1945554249948773	1.9643046813374379	5.158860106332315	484.9428749016375	599.1081677804194	-5.694656488549618	5.221374045801526	1.4961832061068703	-0.10494752623688156	0.4197901049475262	0.10644677661169415	
1.7089455483397666E12	1.7282608695652173	-6.282608695652174	3.967391304347826	3989.7435897435894	128.0	128.0	3.244968443509155	1.8919666876753203	5.136935131184475	484.94467794235686	599.041383152173	-4.412213740458015	5.49618320610687	1.7862595419847327	-0.10794602698650674	0.4017991004497751	0.10644677661169415	
1.7089455483592983E12	1.7391304347826086	-6.271739130434782	3.9891304347826084	3963.369963369963	128.0	128.0	3.2746825545647806	1.8691762529821703	5.143858807546951	484.94893311845465	599.0214775826308	-2.946564885496183	5.938931297709924	1.450381679389313	-0.11394302848575712	0.41529235382308843	0.1199400299850075	
1.7089455483788298E12	1.7065217391304348	-6.260869565217391	4.010869565217392	3989.7435897435894	128.0	128.0	3.274971041079884	1.8520113053335314	5.126982346413415	484.950736159174	599.0051059728987	-2.33587786259542	6.854961832061068	1.4198473282442747	-0.09895052473763118	0.4047976011994003	0.1199400299850075	
1.7089455483983616E12	1.684782608695652	-6.239130434782608	4.032608695652174	3989.7435897435894	128.0	128.0	3.269345554035372	1.840832452873284	5.110178006908656	484.9510967673179	599.0133278385792	-2.946564885496183	7.114503816793893	1.1755725190839694	-0.10644677661169415	0.4047976011994003	0.10494752623688156	
1.708945548417893E12	1.7065217391304348	-6.228260869565217	3.967391304347826	3988.278388278388	128.0	128.0	3.2801637983517407	1.843212466622885	5.123376264974626	484.95131313220423	598.9984707830514	-3.5267175572519083	7.129770992366412	1.2671755725190839	-0.11244377811094453	0.416791604197901	0.10344827586206896	
1.7089455484374246E12	1.6521739130434783	-6.108695652173913	3.9130434782608696	3989.7435897435894	128.0	128.0	3.2610515667261564	1.861098630559281	5.122150197285437	484.9552798217869	598.9942156069536	-1.9694656488549618	7.98473282442748	1.0687022900763359	-0.10494752623688156	0.4017991004497751	0.11394302848575712	
1.7089455484569563E12	1.6630434782608696	-6.119565217391304	3.869565217391304	3986.8131868131863	128.0	128.0	3.2653788644527038	1.877470240291386	5.14284910474409	484.95203434849196	598.9964513774456	-4.488549618320611	8.885496183206106	0.8091603053435115	-0.10644677661169415	0.41829085457271364	0.12593703148425786	
1.7089455484764878E12	1.7065217391304348	-6.119565217391304	3.8043478260869565	3989.7435897435894	128.0	128.0	3.259753377408192	1.8784799430942472	5.138233320502439	484.94886099682583	598.9883737550227	-6.8396946564885495	7.969465648854961	0.32061068702290074	-0.10644677661169415	0.4047976011994003	0.1199400299850075	
1.7089455484960195E12	1.7065217391304348	-6.141304347826087	3.8260869565217392	3989.7435897435894	128.0	128.0	3.260763080211053	1.8714841451029955	5.132247225314049	484.9502313077726	598.9911143769162	-5.801526717557252	7.908396946564885	0.4427480916030534	-0.09895052473763118	0.41529235382308843	0.11244377811094453	
1.708945548515551E12	1.6630434782608696	-6.239130434782608	3.9782608695652173	3963.369963369963	128.0	128.0	3.264224918392291	1.8829514840783461	5.147176402470637	484.9556404299308	598.9934943906659	-7.374045801526718	8.198473282442748	0.32061068702290074	-0.11394302848575712	0.41079460269865065	0.11244377811094453	
1.7089455485350828E12	1.6195652173913042	-6.358695652173913	3.9130434782608696	3991.208791208791	128.0	128.0	3.259537012521865	1.8797060107834356	5.1392430233053	484.9532604161812	598.9890228496818	-6.900763358778626	9.297709923664122	0.8244274809160305	-0.09745127436281859	0.40629685157421286	0.12143928035982009	
1.7089455485546143E12	1.5652173913043477	-6.391304347826087	4.010869565217392	3989.7435897435894	128.0	128.0	3.2441029839638453	1.9368263407738615	5.180929324737707	484.9537652675826	598.9772670241913	-5.32824427480916	9.007633587786259	1.114503816793893	-0.10494752623688156	0.416791604197901	0.11094452773613193	
1.7089455485741458E12	1.6304347826086956	-6.391304347826087	4.010869565217392	3988.278388278388	128.0	128.0	3.2378284022603516	1.9469954904312479	5.1848238926915995	484.95008706451506	598.9965956207033	-6.076335877862595	8.290076335877862	1.2366412213740459	-0.11094452773613193	0.42278860569715143	0.11544227886056971	
1.7089455485936775E12	1.6521739130434783	-6.380434782608695	3.9565217391304346	3989.7435897435894	128.0	128.0	3.178328058520324	2.0362820668556774	5.2146101253760015	484.95008706451506	598.969982739685	-7.83206106870229	8.458015267175572	1.1450381679389312	-0.10644677661169415	0.41529235382308843	0.12293853073463268	
1.708945548613209E12	1.6739130434782608	-6.315217391304348	3.9130434782608696	3988.278388278388	128.0	128.0	3.183953545564836	1.9658192355417299	5.149772781106566	484.9490052400834	598.9848397952128	-5.770992366412213	7.740458015267175	1.0381679389312977	-0.12443778110944527	0.4197901049475262	0.12443778110944527	
1.7089455486327407E12	1.6739130434782608	-6.25	3.9456521739130435	3988.278388278388	128.0	128.0	3.2415787269566927	1.911295284187232	5.152874011143925	484.9485725103107	598.9795749163121	-5.129770992366412	6.473282442748092	1.3587786259541985	-0.11544227886056971	0.4017991004497751	0.11094452773613193	
1.7089455486522722E12	1.6195652173913042	-6.25	3.891304347826087	3988.278388278388	128.0	128.0	3.2633594588469816	1.8499918997278093	5.113351358574791	484.94749068587913	598.9894555794544	-5.633587786259541	6.931297709923664	1.083969465648855	-0.11394302848575712	0.41529235382308843	0.11244377811094453	
1.708945548671804E12	1.5978260869565217	-6.228260869565217	3.8804347826086953	3963.369963369963	128.0	128.0	3.272230419186404	1.8382360742373556	5.110466493423759	484.94237005023604	598.979935524456	-6.091603053435114	7.3893129770992365	1.1908396946564885	-0.11394302848575712	0.41529235382308843	0.13343328335832083	
1.7089455486913354E12	1.641304347826087	-6.293478260869565	3.8478260869565215	3989.7435897435894	128.0	128.0	3.30519000353694	1.8600889277564203	5.1652789312933605	484.9424421718648	598.9989756344528	-7.114503816793893	6.442748091603053	1.1908396946564885	-0.10794602698650674	0.3988005997001499	0.12143928035982009	
1.708945548710867E12	1.6630434782608696	-6.304347826086956	3.891304347826087	3988.278388278388	128.0	128.0	3.1530133668200215	2.016376497313559	5.1693898641335805	484.9422979286073	599.1223757412882	-6.702290076335878	5.480916030534351	1.450381679389313	-0.11544227886056971	0.4017991004497751	0.11094452773613193	
1.7089455487303987E12	1.641304347826087	-6.315217391304348	3.858695652173913	3986.8131868131863	128.0	128.0	2.4512699188315774	2.8341636460022506	5.285433564833828	484.9431633881526	598.7679700574839	-5.908396946564885	5.557251908396946	1.3282442748091603	-0.095952023988006	0.4047976011994003	0.11544227886056971	
1.7089455487499302E12	1.6630434782608696	-6.380434782608695	3.8260869565217392	3988.278388278388	128.0	128.0	3.154167312880434	1.905597675513944	5.059764988394378	484.93926882019866	598.9109151257176	-4.99236641221374	5.2824427480916025	1.2519083969465647	-0.12143928035982009	0.4257871064467766	0.11244377811094453	
1.708945548769462E12	1.6630434782608696	-6.413043478260869	3.9130434782608696	3988.278388278388	128.0	128.0	3.2224664953311084	1.9498082339535037	5.172274729284612	484.93811487413825	599.0470807608463	-5.908396946564885	4.396946564885496	1.4351145038167938	-0.11394302848575712	0.41079460269865065	0.11244377811094453	
1.7089455487889934E12	1.5978260869565217	-6.391304347826087	4.032608695652174	3960.43956043956	128.0	128.0	3.241073875555262	1.9371148272889647	5.178188702844227	484.93486940084335	599.0460710580434	-5.709923664122138	6.687022900763359	0.9007633587786259	-0.095952023988006	0.4077961019490255	0.12293853073463268	
1.7089455488085251E12	1.608695652173913	-6.3478260869565215	3.7282608695652173	3988.278388278388	128.0	128.0	3.2306162393827726	1.954135531680051	5.184751771062824	484.93515788735846	599.0384261653932	-3.450381679389313	7.480916030534351	1.2366412213740459	-0.1199400299850075	0.4017991004497751	0.11394302848575712	
1.7089455488280566E12	1.684782608695652	-6.315217391304348	3.717391304347826	3964.8351648351645	128.0	128.0	3.21849980574844	1.9645210462237648	5.183020851972205	484.93385969804046	599.0602068972835	-2.7022900763358777	6.183206106870228	1.2671755725190839	-0.1199400299850075	0.40629685157421286	0.11094452773613193	
1.7089455488475881E12	1.6630434782608696	-6.304347826086956	3.8043478260869565	3989.7435897435894	128.0	128.0	3.215614940597408	1.9792338584940272	5.194848799091435	484.92859481913985	599.0725396958042	-3.9847328244274807	6.137404580152672	2.1221374045801524	-0.10044977511244378	0.40629685157421286	0.11394302848575712	
1.7089455488671199E12	1.641304347826087	-6.315217391304348	3.869565217391304	3989.7435897435894	128.0	128.0	3.171260138900297	2.017602565002747	5.188862703903044	484.92902754891253	599.1067253478438	-5.343511450381679	5.679389312977099	1.1450381679389312	-0.11244377811094453	0.40629685157421286	0.11394302848575712	
1.7089455488866514E12	1.6521739130434783	-6.3478260869565215	3.8478260869565215	3988.278388278388	128.0	128.0	3.1502006232977657	2.0332529584470938	5.1834535817448595	484.9224644806939	599.1458152706404	-5.648854961832061	3.5725190839694654	0.916030534351145	-0.10794602698650674	0.39430284857571213	0.12443778110944527	
1.708945548906183E12	1.6304347826086956	-6.380434782608695	3.793478260869565	3989.7435897435894	128.0	128.0	3.1021676185330893	2.043566351362032	5.145733969895121	484.9219596292925	599.2340200226331	-4.106870229007633	4.473282442748092	0.24427480916030533	-0.10044977511244378	0.40629685157421286	0.11394302848575712	
1.7089455489257146E12	1.6956521739130435	-6.391304347826087	3.8043478260869565	3989.7435897435894	128.0	128.0	3.0506727755871745	2.06210160995741	5.112774385544585	484.92008446694433	599.281980905769	-3.0229007633587783	4.9465648854961835	0.6412213740458015	-0.1199400299850075	0.40929535232383807	0.12143928035982009	
1.7089455489452463E12	1.6739130434782608	-6.380434782608695	3.8260869565217392	3963.369963369963	128.0	128.0	3.028675678810558	2.0670058807141642	5.0956815595247225	484.9225366023227	599.308377421901	-3.312977099236641	5.877862595419847	0.4580152671755725	-0.10344827586206896	0.41079460269865065	0.11544227886056971	
1.7089455489647778E12	1.6739130434782608	-6.369565217391304	3.8043478260869565	3989.7435897435894	128.0	128.0	3.098200928950421	2.0551779335949343	5.153378862545355	484.91792081808103	599.1592298935926	-3.3587786259541983	4.488549618320611	1.0229007633587786	-0.11544227886056971	0.40929535232383807	0.12893553223388304	
1.7089455489843093E12	1.6630434782608696	-6.358695652173913	3.793478260869565	3963.369963369963	128.0	128.0	3.171188017271521	1.9901963460679468	5.161384363339468	484.91344927709696	599.0613608433439	-2.8702290076335877	5.038167938931298	0.564885496183206	-0.10044977511244378	0.424287856071964	0.12443778110944527	
1.708945549003841E12	1.7065217391304348	-6.304347826086956	3.7717391304347827	3989.7435897435894	128.0	128.0	3.2379005238891274	1.9209595824431878	5.158860106332315	484.91186260126386	599.006981135247	-2.030534351145038	5.709923664122138	0.1984732824427481	-0.10794602698650674	0.3988005997001499	0.12143928035982009	
1.7089455490233726E12	1.7065217391304348	-6.326086956521739	3.8260869565217392	3988.278388278388	128.0	128.0	3.240496902525056	1.9032897833931193	5.143786685918175	484.91150199312	598.9877967819925	-2.564885496183206	7.374045801526718	-0.16793893129770993	-0.10344827586206896	0.41829085457271364	0.12593703148425786	
1.7089455490429043E12	1.717391304347826	-6.369565217391304	3.869565217391304	3988.278388278388	128.0	128.0	3.2531181875608195	1.9021358373327062	5.155254024893526	484.906669843992	598.9970283504758	-3.2519083969465647	8.65648854961832	0.2900763358778626	-0.10494752623688156	0.416791604197901	0.10644677661169415	
1.7089455490624358E12	1.6956521739130435	-6.391304347826087	3.75	3989.7435897435894	128.0	128.0	3.2633594588469816	1.8941303365385935	5.157489795385575	484.9069583305071	599.0001295805132	-3.847328244274809	7.786259541984733	0.6106870229007634	-0.12143928035982009	0.4077961019490255	0.12293853073463268	
1.7089455490819675E12	1.7065217391304348	-6.380434782608695	3.891304347826087	3988.278388278388	128.0	128.0	3.2671097835433227	1.8845381599114135	5.151647943454736	484.90205405975036	599.0013556482024	-2.5343511450381677	7.297709923664121	0.8549618320610687	-0.1199400299850075	0.4017991004497751	0.12143928035982009	
1.708945549101499E12	1.6521739130434783	-6.3478260869565215	3.782608695652174	3988.278388278388	128.0	128.0	3.265595229339031	1.8947794311975756	5.160374660536607	484.895418869903	599.0046732431261	-1.6030534351145038	7.0534351145038165	0.366412213740458	-0.11544227886056971	0.4017991004497751	0.11394302848575712	
1.7089455491210305E12	1.684782608695652	-6.326086956521739	3.8478260869565215	3988.278388278388	128.0	128.0	3.2609794450973806	1.8916782011602167	5.152657646257597	484.8948418968728	598.9945762150975	-1.4045801526717556	7.2824427480916025	0.4427480916030534	-0.11544227886056971	0.40629685157421286	0.1169415292353823	
1.7089455491405623E12	1.6630434782608696	-6.33695652173913	3.8043478260869565	3964.8351648351645	128.0	128.0	3.2737449733906954	1.9068237432031325	5.180568716593828	484.8894327747146	598.9963071341881	-2.8396946564885495	7.755725190839694	-0.13740458015267176	-0.11394302848575712	0.39730134932533734	0.12293853073463268	
1.7089455491600938E12	1.6739130434782608	-6.315217391304348	3.793478260869565	3989.7435897435894	128.0	128.0	3.2579503366887974	1.9103577030131462	5.168308039701944	484.88575457164706	598.989599822712	-3.2671755725190836	7.6183206106870225	0.5343511450381679	-0.11244377811094453	0.4017991004497751	0.11094452773613193	
1.7089455491796255E12	1.6521739130434783	-6.33695652173913	3.8260869565217392	3986.8131868131863	128.0	128.0	3.2671819051720985	1.9099249732404915	5.17710687841259	484.8908752072901	598.9900325524846	-3.7709923664122136	7.1603053435114505	0.7633587786259541	-0.1199400299850075	0.3988005997001499	0.13193403298350825	
1.708945549199157E12	1.6195652173913042	-6.369565217391304	3.8369565217391304	3986.8131868131863	128.0	128.0	3.2719419326713006	1.903938878052101	5.175880810723402	484.88503335535927	598.9875804171062	-3.6030534351145036	7.801526717557252	1.083969465648855	-0.11094452773613193	0.41829085457271364	0.13043478260869565	
1.7089455492186887E12	1.6630434782608696	-6.380434782608695	3.8152173913043477	3988.278388278388	128.0	128.0	3.2713649596410943	1.9072564729757873	5.178621432616882	484.88034544948886	598.9934943906659	-2.595419847328244	7.587786259541985	1.2366412213740459	-0.1184407796101949	0.41079460269865065	0.11244377811094453	
1.7089455492382202E12	1.6195652173913042	-6.3478260869565215	3.902173913043478	3988.278388278388	128.0	128.0	3.2848517042221674	1.8908127416149068	5.175664445837074	484.88503335535927	598.987003444076	-2.213740458015267	7.450381679389313	0.916030534351145	-0.11394302848575712	0.39280359820089955	0.12293853073463268	
1.7089455492577517E12	1.641304347826087	-6.391304347826087	3.8478260869565215	3988.278388278388	128.0	128.0	3.283914123048082	1.8937697283947141	5.177683851442796	484.878686652027	598.9858494980156	-2.4732824427480917	7.221374045801526	0.916030534351145	-0.09895052473763118	0.39730134932533734	0.11544227886056971	
1.7089455492772834E12	1.641304347826087	-6.369565217391304	3.8369565217391304	3989.7435897435894	128.0	128.0	3.2781443927460185	1.9455530578557325	5.223697450601751	484.8799127197162	598.9977495667637	-1.8473282442748091	6.7328244274809155	1.0381679389312977	-0.09895052473763118	0.41829085457271364	0.12293853073463268	
1.708945549296815E12	1.6630434782608696	-6.3478260869565215	3.8043478260869565	3963.369963369963	128.0	128.0	3.2464829977134464	1.9785847638350447	5.225067761548491	484.87609027339107	598.9945762150975	-1.984732824427481	6.3969465648854955	1.1450381679389312	-0.1184407796101949	0.41529235382308843	0.11544227886056971	
1.7089455493163467E12	1.641304347826087	-6.315217391304348	3.8478260869565215	3989.7435897435894	128.0	128.0	3.2120088591586184	2.030007485152183	5.242016344310802	484.8739987461566	598.9678190908216	-2.2442748091603053	6.183206106870228	1.297709923664122	-0.11394302848575712	0.41079460269865065	0.12293853073463268	
1.7089455493358782E12	1.6630434782608696	-6.315217391304348	3.869565217391304	3989.7435897435894	128.0	128.0	3.222899225103763	1.967910762776227	5.19080998787999	484.8731332866113	598.9689009152534	-2.381679389312977	5.847328244274809	0.8396946564885496	-0.10344827586206896	0.4002998500749625	0.10794602698650674	
1.70894554935541E12	1.6521739130434783	-6.33695652173913	3.8260869565217392	3986.8131868131863	128.0	128.0	3.292568718501177	1.9000443100982078	5.192613028599385	484.86909447539983	598.9688287936245	-2.6564885496183206	5.801526717557252	0.8396946564885496	-0.11094452773613193	0.41079460269865065	0.11244377811094453	
1.7089455493749414E12	1.6630434782608696	-6.315217391304348	3.8369565217391304	3989.7435897435894	128.0	128.0	3.3109597338390033	1.8706186855576856	5.181578419396689	484.8706090296041	598.9719300236619	-1.8931297709923662	5.3893129770992365	0.9618320610687022	-0.11394302848575712	0.41829085457271364	0.13043478260869565	
1.7089455493944731E12	1.6739130434782608	-6.33695652173913	3.902173913043478	3989.7435897435894	128.0	128.0	3.3272592219423323	1.842563371963903	5.169822593906235	484.8649114209308	598.9772670241913	-1.3740458015267174	5.297709923664122	1.2671755725190839	-0.11394302848575712	0.4002998500749625	0.12293853073463268	
1.7089455494140046E12	1.6630434782608696	-6.358695652173913	3.9239130434782608	3967.7655677655675	128.0	128.0	3.361444873982057	1.865353806657053	5.22679868063911	484.86599324536246	598.9929174176357	-1.8015267175572518	5.984732824427481	1.4961832061068703	-0.10644677661169415	0.4077961019490255	0.11544227886056971	
1.7089455494335361E12	1.6956521739130435	-6.358695652173913	3.8804347826086953	3988.278388278388	128.0	128.0	3.2813898660409295	1.9485821662643152	5.229972032305245	484.8635411099841	599.0954022521261	-2.1068702290076335	5.770992366412213	1.2519083969465647	-0.10044977511244378	0.40929535232383807	0.10344827586206896	
1.7089455494530679E12	1.7065217391304348	-6.326086956521739	3.8043478260869565	3964.8351648351645	128.0	128.0	2.37034945134514	2.857531053725607	5.227880505070747	484.86570475884736	598.8038145069855	-1.8778625954198473	5.32824427480916	0.6412213740458015	-0.12143928035982009	0.38980509745127434	0.10794602698650674	
1.7089455494725994E12	1.684782608695652	-6.260869565217391	3.8478260869565215	3961.9047619047615	128.0	128.0	3.175371071740517	2.0349117559089374	5.210282827649454	484.8543095415008	598.8014344932359	-1.5725190839694656	5.816793893129771	0.9007633587786259	-0.1184407796101949	0.39280359820089955	0.11544227886056971	
1.708945549492131E12	1.6739130434782608	-6.3478260869565215	3.902173913043478	3988.278388278388	128.0	128.0	3.2794425820639828	1.9837053994781262	5.263147981542109	484.85503075778854	599.0649669247827	-2.763358778625954	5.206106870229007	0.916030534351145	-0.11244377811094453	0.4017991004497751	0.09895052473763118	
1.7089455495116626E12	1.6195652173913042	-6.304347826086956	3.9565217391304346	3986.8131868131863	128.0	128.0	3.3084354768318507	1.958607072664151	5.267042549496002	484.85474227127344	599.0630196408057	-2.8244274809160306	7.1603053435114505	1.0381679389312977	-0.11244377811094453	0.416791604197901	0.11094452773613193	
1.7089455495311943E12	1.6521739130434783	-6.369565217391304	3.8043478260869565	3989.7435897435894	128.0	128.0	3.3248070865639554	1.9581743428914957	5.282981429455451	484.8559683389626	599.0619378163741	-2.610687022900763	8.564885496183205	0.9923664122137404	-0.10794602698650674	0.424287856071964	0.10644677661169415	
1.7089455495507258E12	1.717391304347826	-6.315217391304348	3.8369565217391304	3979.487179487179	128.0	128.0	3.30107907069672	1.9823350885313857	5.283414159228106	484.85885320411364	599.084511886181	-0.4580152671755725	7.404580152671755	0.916030534351145	-0.10494752623688156	0.40929535232383807	0.11394302848575712	
1.7089455495702573E12	1.7282608695652173	-6.293478260869565	3.891304347826087	3988.278388278388	128.0	128.0	3.292280231986074	1.986013291598951	5.278293523585025	484.8546701496447	599.0938876979218	-0.9923664122137404	6.5038167938931295	1.3282442748091603	-0.12143928035982009	0.41829085457271364	0.1199400299850075	
1.708945549589789E12	1.6956521739130435	-6.282608695652174	4.0	3988.278388278388	128.0	128.0	3.2723746624439554	2.007721901860464	5.2800965643044195	484.84868405445627	599.1310303367413	-2.5343511450381677	5.847328244274809	0.8244274809160305	-0.1184407796101949	0.41829085457271364	0.11544227886056971	
1.7089455496093206E12	1.6630434782608696	-6.358695652173913	3.9891304347826084	3964.8351648351645	128.0	128.0	3.259537012521865	2.0154389161394737	5.2749759286613385	484.84695313536565	599.1665862997278	-3.0229007633587783	5.770992366412213	0.48854961832061067	-0.10794602698650674	0.3988005997001499	0.1169415292353823	
1.7089455496288523E12	1.6195652173913042	-6.391304347826087	3.9239130434782608	3988.278388278388	128.0	128.0	3.192247532874052	2.0528700414741086	5.245117574348161	484.84969375725916	599.2448382669495	-2.6259541984732824	5.816793893129771	0.732824427480916	-0.11544227886056971	0.41379310344827586	0.10344827586206896	
1.7089455496483838E12	1.6739130434782608	-6.4021739130434785	3.934782608695652	3988.278388278388	128.0	128.0	3.1569800564026904	2.05525005522371	5.2122301116264005	484.85164104123606	599.2988573669026	-2.4732824427480917	6.290076335877862	0.42748091603053434	-0.11544227886056971	0.4197901049475262	0.11094452773613193	
1.7089455496679155E12	1.6739130434782608	-6.369565217391304	3.902173913043478	3985.3479853479853	128.0	128.0	3.110100997698426	2.0923926940432427	5.202493691741669	484.8489004193426	599.3295090591323	-2.015267175572519	7.786259541984733	0.564885496183206	-0.11094452773613193	0.39730134932533734	0.10194902548725637	
1.708945549687447E12	1.6956521739130435	-6.33695652173913	3.8804347826086953	3989.7435897435894	128.0	128.0	3.154888529168192	2.089435707263435	5.244324236431627	484.8438519053283	599.2220478322563	-0.8396946564885496	7.541984732824427	0.6564885496183206	-0.10044977511244378	0.40629685157421286	0.1169415292353823	
1.7089455497069785E12	1.6739130434782608	-6.33695652173913	3.891304347826087	3988.278388278388	128.0	128.0	3.2384774969193337	2.041907553900189	5.280385050819523	484.8456549460477	599.100234401254	-1.8931297709923662	6.793893129770992	1.1450381679389312	-0.12743628185907047	0.41379310344827586	0.12443778110944527	
1.7089455497265103E12	1.6521739130434783	-6.282608695652174	3.891304347826087	3988.278388278388	128.0	128.0	3.332451979214189	1.961203451300079	5.293655430514268	484.84457312161607	598.9975332018773	-1.3740458015267174	6.854961832061068	1.282442748091603	-0.11094452773613193	0.4047976011994003	0.09745127436281859	
1.7089455497460417E12	1.608695652173913	-6.315217391304348	3.9239130434782608	3988.278388278388	128.0	128.0	3.3465878184542444	1.9423075845608215	5.288895403015066	484.8402458238895	598.9830367544934	-2.2900763358778624	7.0534351145038165	1.1755725190839694	-0.1184407796101949	0.4077961019490255	0.1199400299850075	
1.7089455497655735E12	1.6630434782608696	-6.315217391304348	3.9565217391304346	3963.369963369963	128.0	128.0	3.3548096841346844	1.919877758011551	5.274687442146235	484.8430585674118	598.9862822277883	-2.5343511450381677	7.572519083969465	0.916030534351145	-0.1184407796101949	0.4257871064467766	0.10794602698650674	
1.708945549785105E12	1.6739130434782608	-6.326086956521739	3.891304347826087	3989.7435897435894	128.0	128.0	3.3732728211012866	1.9087710271800793	5.282043848281366	484.83952460760173	598.9732282129798	-3.4045801526717554	7.129770992366412	0.6564885496183206	-0.1184407796101949	0.4047976011994003	0.11544227886056971	
1.7089455498046367E12	1.684782608695652	-6.326086956521739	3.9565217391304346	3989.7435897435894	128.0	128.0	3.3667818745114655	1.9142522709670393	5.281034145478505	484.8411112834348	598.9892392145681	-2.9770992366412212	6.6106870229007635	0.9770992366412213	-0.11544227886056971	0.40629685157421286	0.11394302848575712	
1.7089455498241682E12	1.6521739130434783	-6.358695652173913	3.9239130434782608	3985.3479853479853	128.0	128.0	3.378465578373144	1.9086267839225273	5.287092362295671	484.83829853991256	599.0170781632755	-2.8244274809160306	6.595419847328244	1.0534351145038168	-0.10794602698650674	0.41379310344827586	0.10644677661169415	
1.7089455498436997E12	1.6521739130434783	-6.33695652173913	3.967391304347826	3989.7435897435894	128.0	128.0	3.369738861291273	1.926008096457493	5.295746957748766	484.8386591480564	599.0002738237707	-3.16030534351145	6.244274809160305	0.48854961832061067	-0.10494752623688156	0.424287856071964	0.12143928035982009	
1.7089455498632314E12	1.6630434782608696	-6.3478260869565215	3.9239130434782608	3983.8827838827838	128.0	128.0	3.377383753941507	1.920022001269102	5.297405755210609	484.83786581013993	598.9997689723693	-3.145038167938931	5.709923664122138	0.8396946564885496	-0.12443778110944527	0.40929535232383807	0.11394302848575712	
1.708945549882763E12	1.6521739130434783	-6.358695652173913	3.9456521739130435	3988.278388278388	128.0	128.0	3.3704600775790308	1.9329317728199689	5.303391850399	484.8354136747615	599.0017883779751	-2.8702290076335877	6.229007633587786	0.9618320610687022	-0.11544227886056971	0.416791604197901	0.12143928035982009	
1.7089455499022947E12	1.6521739130434783	-6.358695652173913	3.9782608695652173	3988.278388278388	128.0	128.0	3.379403159547229	1.9137474195656083	5.2931505791128375	484.835269431504	599.003086567293	-2.687022900763359	6.366412213740458	0.7633587786259541	-0.10344827586206896	0.4002998500749625	0.10494752623688156	
1.7089455499218262E12	1.6739130434782608	-6.33695652173913	3.9782608695652173	3963.369963369963	128.0	128.0	3.390726255265028	1.9060304052865988	5.296756660551627	484.83685610733704	598.9981822965362	-3.0076335877862594	7.068702290076335	0.33587786259541985	-0.10494752623688156	0.3988005997001499	0.09895052473763118	
1.708945549941358E12	1.6521739130434783	-6.4021739130434785	4.021739130434782	3989.7435897435894	128.0	128.0	3.3874807819701176	1.9099249732404915	5.297405755210609	484.8362070126781	598.9961628909306	-2.9618320610687023	7.587786259541985	1.0076335877862594	-0.11094452773613193	0.4077961019490255	0.11544227886056971	
1.7089455499608894E12	1.6630434782608696	-6.33695652173913	3.9891304347826084	3989.7435897435894	128.0	128.0	3.398587512801589	1.9015588643024999	5.300146377104089	484.834620336845	598.9907537687724	-2.3664122137404577	7.7251908396946565	0.9618320610687022	-0.12143928035982009	0.4047976011994003	0.12593703148425786	
1.708945549980421E12	1.684782608695652	-6.315217391304348	3.902173913043478	3983.8827838827838	128.0	128.0	3.390437768749925	1.911439527444783	5.301877296194708	484.8345482152162	598.9809452272589	-1.4045801526717556	7.404580152671755	1.1603053435114503	-0.11094452773613193	0.41829085457271364	0.11544227886056971	
1.7089455499999526E12	1.6739130434782608	-6.293478260869565	3.9456521739130435	3989.7435897435894	128.0	128.0	3.3912311066664587	1.90978072998294	5.301011836649399	484.837505201996	598.9835416058947	-0.8396946564885496	7.1603053435114505	0.9312977099236641	-0.11394302848575712	0.4047976011994003	0.11544227886056971	
1.7089455500194841E12	1.684782608695652	-6.293478260869565	3.9782608695652173	3989.7435897435894	128.0	128.0	3.395919012536885	1.8959333772579883	5.291852389794873	484.8333942691558	598.9795027946833	-2.396946564885496	7.2824427480916025	0.8702290076335878	-0.1199400299850075	0.40629685157421286	0.12143928035982009	
1.7089455500390159E12	1.6304347826086956	-6.33695652173913	3.9782608695652173	3988.278388278388	128.0	128.0	3.4013281346950692	1.8981691477500378	5.299497282445107	484.83801005339745	598.9917634715753	-2.5801526717557253	7.358778625954198	0.8702290076335878	-0.11394302848575712	0.41829085457271364	0.11544227886056971	
1.7089455500585474E12	1.6739130434782608	-6.33695652173913	3.9782608695652173	3988.278388278388	128.0	128.0	3.397577809998728	1.9016309859312757	5.299208795930004	484.8367839857083	598.9795749163121	-2.4885496183206106	7.435114503816793	0.549618320610687	-0.11244377811094453	0.41379310344827586	0.1169415292353823	
1.708945550078079E12	1.6739130434782608	-6.369565217391304	3.9891304347826084	3964.8351648351645	128.0	128.0	3.403419661929567	1.896366107030643	5.29978576896021	484.83959672923055	598.9890949713106	-1.8015267175572518	7.297709923664121	0.732824427480916	-0.10794602698650674	0.40929535232383807	0.12143928035982009	
1.7089455500976106E12	1.641304347826087	-6.33695652173913	3.967391304347826	3961.9047619047615	128.0	128.0	3.4004626751497598	1.9050207024837378	5.3054833776334975	484.84168825646503	598.9852004033567	-1.8778625954198473	7.1603053435114505	0.916030534351145	-0.11544227886056971	0.4017991004497751	0.10344827586206896	
1.708945550117142E12	1.6195652173913042	-6.271739130434782	3.9239130434782608	3989.7435897435894	128.0	128.0	3.400029945377105	1.8978085396061588	5.297838484983264	484.84240947275276	598.9734445778662	-1.4045801526717556	7.251908396946565	0.7480916030534351	-0.11544227886056971	0.41379310344827586	0.12143928035982009	
1.7089455501366738E12	1.641304347826087	-6.282608695652174	3.9782608695652173	3982.4175824175823	128.0	128.0	3.3778164837141618	1.953630680278621	5.331447163992783	484.84313068904055	598.9871476873336	-2.2900763358778624	7.312977099236641	0.8854961832061068	-0.1199400299850075	0.4197901049475262	0.11394302848575712	
1.7089455501562053E12	1.6630434782608696	-6.315217391304348	3.9565217391304346	3989.7435897435894	128.0	128.0	3.3647624689057434	1.9814696289860763	5.34623209789182	484.8457270676765	598.9958022827867	-2.748091603053435	7.526717557251908	0.3511450381679389	-0.1199400299850075	0.4197901049475262	0.12443778110944527	
1.708945550175737E12	1.6739130434782608	-6.326086956521739	3.967391304347826	3989.7435897435894	128.0	128.0	3.306993044256335	2.067222245600491	5.374215289856826	484.8468810137369	598.9670978745339	-2.396946564885496	7.343511450381679	0.5038167938931297	-0.11094452773613193	0.41079460269865065	0.10494752623688156	
1.7089455501952686E12	1.6739130434782608	-6.304347826086956	3.967391304347826	3988.278388278388	128.0	128.0	3.3212731267539417	1.989258764893861	5.310531891647803	484.8481792030548	598.9642851310117	-1.9541984732824427	7.114503816793893	0.5954198473282443	-0.1199400299850075	0.40629685157421286	0.11394302848575712	
1.7089455502148003E12	1.6739130434782608	-6.315217391304348	3.9456521739130435	3989.7435897435894	128.0	128.0	3.399669337233226	1.9125934735051957	5.312262810738422	484.8465925272218	598.971569415518	-1.450381679389313	6.8396946564885495	0.7633587786259541	-0.1184407796101949	0.43628185907046474	0.11244377811094453	
1.7089455502343318E12	1.6739130434782608	-6.293478260869565	3.967391304347826	3963.369963369963	128.0	128.0	3.416690041624313	1.8758835644583183	5.292573606082631	484.84724162188076	598.9631311849513	-1.6793893129770991	7.145038167938931	0.7633587786259541	-0.11244377811094453	0.40629685157421286	0.11094452773613193	
1.7089455502538635E12	1.641304347826087	-6.271739130434782	3.9891304347826084	3989.7435897435894	128.0	128.0	3.4382544086282745	1.863839252452761	5.302093661081035	484.85120831146344	598.9726512399496	-1.8931297709923662	7.541984732824427	0.9007633587786259	-0.11094452773613193	0.39280359820089955	0.12593703148425786	
1.708945550273395E12	1.6630434782608696	-6.326086956521739	4.065217391304348	3988.278388278388	128.0	128.0	3.447630220369127	1.8620362117333662	5.309666432102493	484.84991012214545	598.9716415371468	-2.229007633587786	7.83206106870229	0.7786259541984732	-0.10644677661169415	0.41079460269865065	0.10494752623688156	
1.7089455502929265E12	1.6630434782608696	-6.326086956521739	3.967391304347826	3982.4175824175823	128.0	128.0	3.4619824244955093	1.910429824641922	5.372412249137431	484.85192952775117	599.0349643272119	-2.549618320610687	7.190839694656488	0.6870229007633587	-0.09745127436281859	0.4197901049475262	0.11394302848575712	
1.7089455503124583E12	1.641304347826087	-6.293478260869565	3.9891304347826084	3988.278388278388	128.0	128.0	2.4328789034937506	2.823201158428331	5.2560800619220815	484.85834835271226	598.9552699274146	-2.16793893129771	6.351145038167939	0.6717557251908397	-0.10644677661169415	0.42278860569715143	0.10494752623688156	
1.7089455503319897E12	1.6195652173913042	-6.304347826086956	3.9782608695652173	3989.7435897435894	128.0	128.0	3.126039877657876	2.385639236645608	5.511679114303484	484.8464482839642	598.6292080437194	-1.9389312977099236	7.709923664122137	0.6564885496183206	-0.11544227886056971	0.40929535232383807	0.10644677661169415	
1.7089455503515215E12	1.7282608695652173	-6.315217391304348	3.967391304347826	3986.8131868131863	128.0	128.0	3.3088682066045054	1.9746180742523762	5.283486280856882	484.85200164938	599.0537159506937	-2.854961832061069	6.65648854961832	0.41221374045801523	-0.10494752623688156	0.41379310344827586	0.10644677661169415	
1.708945550371053E12	1.6304347826086956	-6.260869565217391	4.119565217391305	3989.7435897435894	128.0	128.0	3.375652834850888	1.9785847638350442	5.354237598685932	484.8495495140016	599.0500377476261	-2.946564885496183	7.297709923664121	1.0381679389312977	-0.11094452773613193	0.41529235382308843	0.11244377811094453	
1.7089455503905847E12	1.608695652173913	-6.271739130434782	3.9239130434782608	3963.369963369963	128.0	128.0	3.3799080109486597	1.9821908452738337	5.362098856222493	484.85474227127344	599.0639572219798	-2.2442748091603053	8.320610687022901	0.9312977099236641	-0.11544227886056971	0.424287856071964	0.1169415292353823	
1.7089455504101162E12	1.684782608695652	-6.25	3.9565217391304346	3989.7435897435894	128.0	128.0	3.3530787650440654	2.00418794205045	5.3572667070945155	484.8543095415008	599.0640293436086	-1.297709923664122	7.877862595419847	0.9618320610687022	-0.10794602698650674	0.4197901049475262	0.095952023988006	
1.7089455504296477E12	1.6956521739130435	-6.282608695652174	4.032608695652174	3988.278388278388	128.0	128.0	3.347741764514657	2.0033224825051406	5.3510642470197975	484.853588325213	599.0704481685697	-2.2442748091603053	7.297709923664121	1.1450381679389312	-0.09895052473763118	0.41829085457271364	0.10494752623688156	
1.7089455504491794E12	1.684782608695652	-6.33695652173913	4.0978260869565215	3980.9523809523807	128.0	128.0	3.3206961537237354	2.0292141472356495	5.349910300959385	484.85921381225756	599.1016768338295	-3.7404580152671754	6.122137404580153	1.2213740458015268	-0.12593703148425786	0.41529235382308843	0.11244377811094453	
1.708945550468711E12	1.6739130434782608	-6.304347826086956	4.065217391304348	3961.9047619047615	128.0	128.0	3.299059665090998	2.034334782878731	5.333394447969729	484.85921381225756	599.12403453875	-3.6488549618320607	4.778625954198473	0.8244274809160305	-0.12893553223388304	0.41079460269865065	0.11244377811094453	
1.7089455504882427E12	1.641304347826087	-6.315217391304348	4.021739130434782	3988.278388278388	128.0	128.0	3.233645347791356	2.0615967585559796	5.295242106347335	484.86159382600715	599.2077677497588	-2.5343511450381677	4.885496183206107	0.8549618320610687	-0.1199400299850075	0.40929535232383807	0.12893553223388304	
1.7089455505077742E12	1.641304347826087	-6.326086956521739	4.054347826086956	3988.278388278388	128.0	128.0	3.1882808432913836	2.0741459219629674	5.262426765254351	484.86642597513514	599.2410879422531	-2.717557251908397	5.312977099236641	0.549618320610687	-0.11394302848575712	0.4047976011994003	0.11544227886056971	
1.708945550527306E12	1.6521739130434783	-6.293478260869565	4.010869565217392	3989.7435897435894	128.0	128.0	3.109163416524341	2.0962872619971353	5.205450678521476	484.8635411099841	599.3059252865226	-2.3664122137404577	5.709923664122138	0.6717557251908397	-0.09745127436281859	0.4017991004497751	0.1169415292353823	
1.7089455505468374E12	1.684782608695652	-6.260869565217391	4.065217391304348	3966.300366300366	128.0	128.0	3.1130579844782336	2.1045091276775754	5.217567112155809	484.86339686672653	599.2556565112659	-2.8244274809160306	5.847328244274809	1.0229007633587786	-0.12593703148425786	0.41829085457271364	0.12593703148425786	
1.708945550566369E12	1.6739130434782608	-6.260869565217391	4.021739130434782	3991.208791208791	128.0	128.0	3.196430587343048	2.0803483820376854	5.276778969380733	484.86397383975674	599.1297321474233	-2.9770992366412212	6.091603053435114	1.3282442748091603	-0.10044977511244378	0.40929535232383807	0.10644677661169415	
1.7089455505859006E12	1.641304347826087	-6.304347826086956	4.021739130434782	3988.278388278388	128.0	128.0	3.3043966656204065	2.0115443481855806	5.315941013805987	484.8635411099841	599.0077023515347	-2.854961832061069	6.717557251908397	1.3282442748091603	-0.10794602698650674	0.416791604197901	0.12143928035982009	
1.7089455506054321E12	1.6630434782608696	-6.326086956521739	4.065217391304348	3980.9523809523807	128.0	128.0	3.3413229395536113	1.9678386411474516	5.309161580701063	484.86642597513514	598.9797912811985	-2.8702290076335877	6.3969465648854955	0.8396946564885496	-0.11394302848575712	0.42278860569715143	0.12293853073463268	
1.7089455506249639E12	1.6739130434782608	-6.326086956521739	4.054347826086956	3989.7435897435894	128.0	128.0	3.352862400157738	1.9321384349034352	5.285000835061173	484.8685175023696	598.9840464572962	-3.068702290076336	6.931297709923664	0.7938931297709924	-0.10644677661169415	0.4047976011994003	0.1199400299850075	
1.7089455506444954E12	1.6521739130434783	-6.304347826086956	4.054347826086956	3989.7435897435894	128.0	128.0	3.345650237280159	1.93394147562283	5.279591712902989	484.8712581242631	598.9844070654401	-2.519083969465649	7.0534351145038165	0.732824427480916	-0.11544227886056971	0.416791604197901	0.11394302848575712	
1.708945550664027E12	1.684782608695652	-6.304347826086956	4.108695652173913	3988.278388278388	128.0	128.0	3.3468763049693475	1.9365378542587584	5.283414159228106	484.86642597513514	598.9883737550227	-2.6564885496183206	6.687022900763359	0.7938931297709924	-0.10644677661169415	0.41079460269865065	0.1199400299850075	
1.7089455506835586E12	1.6630434782608696	-6.315217391304348	3.9565217391304346	3988.278388278388	128.0	128.0	3.342044155841369	1.9456251794845083	5.2876693353258775	484.86729143468045	598.9752476185856	-2.6412213740458013	6.946564885496183	1.297709923664122	-0.10644677661169415	0.4047976011994003	0.1199400299850075	
1.70894555070309E12	1.6739130434782608	-6.293478260869565	3.9782608695652173	3964.8351648351645	128.0	128.0	3.352573913642635	1.9519718828167774	5.304545796459412	484.86895023214225	598.9720021452906	-2.778625954198473	6.0	1.129770992366412	-0.1199400299850075	0.424287856071964	0.09895052473763118	
1.7089455507226218E12	1.6304347826086956	-6.260869565217391	4.076086956521739	3989.7435897435894	128.0	128.0	3.3575503060281644	1.9368263407738615	5.294376646802026	484.86923871865736	598.9610396577167	-2.4732824427480917	6.442748091603053	1.0229007633587786	-0.10044977511244378	0.4017991004497751	0.11394302848575712	
1.7089455507421533E12	1.6304347826086956	-6.282608695652174	4.08695652173913	3988.278388278388	128.0	128.0	3.3482466159160875	1.95312582887719	5.3013724447932775	484.87233994869473	598.9552699274146	-3.145038167938931	6.778625954198473	1.2519083969465647	-0.11094452773613193	0.41079460269865065	0.10794602698650674	
1.708945550761685E12	1.6739130434782608	-6.33695652173913	4.076086956521739	3979.487179487179	128.0	128.0	3.35077087292324	1.9406487870989784	5.2914196600222185	484.8739266245278	598.9546929543844	-3.0229007633587783	6.229007633587786	1.1450381679389312	-0.11394302848575712	0.41529235382308843	0.1199400299850075	
1.7089455507812166E12	1.6630434782608696	-6.326086956521739	4.0978260869565215	3989.7435897435894	128.0	128.0	3.3418999125838176	1.9596167754670115	5.301516688050829	484.8714744891494	598.9425043991214	-2.4580152671755724	7.022900763358779	0.9770992366412213	-0.12443778110944527	0.416791604197901	0.11094452773613193	
1.7089455508007483E12	1.6521739130434783	-6.304347826086956	4.065217391304348	3988.278388278388	128.0	128.0	3.3486072240599665	1.94901489603697	5.2976221200969364	484.87536905710334	598.9390425609402	-2.0610687022900764	8.015267175572518	0.9923664122137404	-0.10794602698650674	0.40929535232383807	0.10344827586206896	
1.7089455508202798E12	1.641304347826087	-6.293478260869565	4.08695652173913	3986.8131868131863	128.0	128.0	3.3437750749319886	1.9180025956633804	5.261777670595369	484.8766672464213	598.9429371288941	-2.5801526717557253	8.13740458015267	1.2213740458015268	-0.10644677661169415	0.41829085457271364	0.11544227886056971	
1.7089455508398113E12	1.6630434782608696	-6.293478260869565	4.043478260869565	3983.8827838827838	128.0	128.0	3.34168354769749	1.9285323534646461	5.270215901162136	484.8802733278601	598.9450286561286	-2.351145038167939	7.297709923664121	0.9465648854961831	-0.10494752623688156	0.43478260869565216	0.11094452773613193	
1.708945550859343E12	1.6630434782608696	-6.271739130434782	4.043478260869565	3961.9047619047615	128.0	128.0	3.3401689934931986	1.9265850694876998	5.266754062980898	484.87796543573927	598.9491395889687	-2.4427480916030535	7.007633587786259	1.1908396946564885	-0.10344827586206896	0.42278860569715143	0.10794602698650674	
1.7089455508788745E12	1.6521739130434783	-6.271739130434782	4.054347826086956	3988.278388278388	128.0	128.0	3.32798043823009	1.9420912196744946	5.270071657904585	484.87933574668597	598.9360134525316	-2.6412213740458013	6.778625954198473	1.3282442748091603	-0.11244377811094453	0.40929535232383807	0.09895052473763118	
1.7089455508984062E12	1.6521739130434783	-6.25	4.043478260869565	3989.7435897435894	128.0	128.0	3.331153789896225	1.9235559610791158	5.254709750975341	484.8795521115723	598.9382492230236	-2.8702290076335877	6.900763358778626	1.2519083969465647	-0.09745127436281859	0.416791604197901	0.11094452773613193	
1.7089455509179377E12	1.6304347826086956	-6.25	4.032608695652174	3980.9523809523807	128.0	128.0	3.3282689247451933	1.9270899208891303	5.255358845634324	484.8769557329364	598.9338498036683	-2.7938931297709924	7.099236641221374	0.9312977099236641	-0.11544227886056971	0.424287856071964	0.11094452773613193	
1.7089455509374695E12	1.6195652173913042	-6.25	4.043478260869565	3989.7435897435894	128.0	128.0	3.32935074917683	1.9168486496029673	5.2461993987797975	484.87767694922417	598.9402686286293	-3.8931297709923665	6.7328244274809155	0.9465648854961831	-0.095952023988006	0.41529235382308843	0.1199400299850075	
1.708945550957001E12	1.6195652173913042	-6.228260869565217	4.010869565217392	3988.278388278388	128.0	128.0	3.324879208192731	1.9497361123247283	5.2746153205174595	484.8819321253219	598.9465432103328	-4.122137404580153	6.702290076335878	0.7022900763358778	-0.11244377811094453	0.41379310344827586	0.12143928035982009	
1.7089455509765325E12	1.6521739130434783	-6.25	4.032608695652174	3988.278388278388	128.0	128.0	3.2940111510766927	2.0064958341712753	5.300506985247968	484.8839515309276	598.950654143173	-4.0	6.213740458015267	0.6259541984732824	-0.12143928035982009	0.41529235382308843	0.10794602698650674	
1.7089455509960642E12	1.641304347826087	-6.25	4.010869565217392	3989.7435897435894	128.0	128.0	3.2405690241538316	2.068592556547231	5.309161580701063	484.8827975848672	598.9253394514727	-4.8396946564885495	6.473282442748092	0.6717557251908397	-0.11244377811094453	0.424287856071964	0.11394302848575712	
1.7089455510155957E12	1.6521739130434783	-6.260869565217391	3.9891304347826084	3964.8351648351645	128.0	128.0	3.2461223895695674	2.0225789573882773	5.268701346957845	484.8832303146399	598.9289455329115	-5.66412213740458	6.259541984732824	0.7175572519083969	-0.11544227886056971	0.416791604197901	0.1169415292353823	
1.7089455510351274E12	1.6630434782608696	-6.25	3.9239130434782608	3989.7435897435894	128.0	128.0	3.3203355455798564	1.9562270589145494	5.276562604494406	484.8783981655119	598.9231036809807	-5.862595419847328	6.076335877862595	0.38167938931297707	-0.11244377811094453	0.416791604197901	0.1169415292353823	
1.708945551054659E12	1.6195652173913042	-6.260869565217391	3.9130434782608696	3989.7435897435894	128.0	128.0	3.327042857056005	1.905309188998841	5.232352046054846	484.8801290846025	598.9360855741603	-5.923664122137405	6.442748091603053	0.38167938931297707	-0.1199400299850075	0.424287856071964	0.12443778110944527	
1.7089455510741907E12	1.6630434782608696	-6.25	4.0	3979.487179487179	128.0	128.0	3.3479581294009844	1.887639389948772	5.235597519349756	484.8813551522917	598.9405571151444	-5.526717557251908	6.625954198473282	0.47328244274809156	-0.09895052473763118	0.4077961019490255	0.11544227886056971	
1.7089455510937222E12	1.6521739130434783	-6.326086956521739	4.0	3988.278388278388	128.0	128.0	3.34803025102976	1.9063188918017016	5.254349142831462	484.87861453039824	598.9317582764338	-6.290076335877862	7.129770992366412	0.21374045801526717	-0.10644677661169415	0.41529235382308843	0.1199400299850075	
1.7089455511132537E12	1.6739130434782608	-6.358695652173913	4.010869565217392	3988.278388278388	128.0	128.0	3.254704863393887	2.0140686051927337	5.2687734685866205	484.8820763685795	599.0661208708431	-6.778625954198473	6.7328244274809155	0.183206106870229	-0.10794602698650674	0.40629685157421286	0.12443778110944527	
1.7089455511327854E12	1.641304347826087	-6.358695652173913	3.967391304347826	3988.278388278388	128.0	128.0	2.504567802496887	2.881691799365497	5.386259601862384	484.88698063933623	598.985705254758	-5.816793893129771	6.198473282442748	0.5190839694656488	-0.12443778110944527	0.41379310344827586	0.10644677661169415	
1.708945551152317E12	1.6630434782608696	-6.33695652173913	3.9565217391304346	3988.278388278388	128.0	128.0	3.2140282647643406	2.0711168135543843	5.285145078318725	484.8750084489594	598.7990544794864	-4.748091603053435	7.1603053435114505	0.061068702290076333	-0.11094452773613193	0.41529235382308843	0.1199400299850075	
1.7089455511718486E12	1.717391304347826	-6.358695652173913	3.9130434782608696	3963.369963369963	128.0	128.0	3.231553820556858	1.9524767342182079	5.184030554775066	484.87565754361844	599.02623761013	-4.99236641221374	6.152671755725191	0.6412213740458015	-0.1199400299850075	0.39430284857571213	0.10644677661169415	
1.7089455511913801E12	1.6195652173913042	-6.293478260869565	4.0978260869565215	3989.7435897435894	128.0	128.0	3.302521503272236	2.00692856394393	5.309450067216166	484.87616239501983	599.014049054867	-5.786259541984733	6.229007633587786	0.8549618320610687	-0.11544227886056971	0.416791604197901	0.12443778110944527	
1.7089455512109119E12	1.6304347826086956	-6.293478260869565	3.8369565217391304	3988.278388278388	128.0	128.0	3.307353652400214	2.004837036709432	5.312190689109646	484.8729890433537	599.0283291373646	-4.580152671755725	7.98473282442748	0.48854961832061067	-0.11544227886056971	0.4017991004497751	0.12893553223388304	
1.7089455512304434E12	1.7065217391304348	-6.271739130434782	3.902173913043478	3979.487179487179	128.0	128.0	3.2968960162277243	2.020631673411331	5.317527689639055	484.87479208407314	599.0347479623256	-4.1679389312977095	8.80916030534351	0.7786259541984732	-0.11244377811094453	0.43178410794602695	0.12143928035982009	
1.708945551249975E12	1.684782608695652	-6.282608695652174	3.9456521739130435	3989.7435897435894	128.0	128.0	3.281966839071136	2.037796621059969	5.319763460131105	484.8735660163839	599.0493886529671	-4.3206106870229	7.740458015267175	0.9312977099236641	-0.1184407796101949	0.42278860569715143	0.10794602698650674	
1.7089455512695066E12	1.6630434782608696	-6.293478260869565	4.010869565217392	3988.278388278388	128.0	128.0	3.283553514904203	2.0301517284097343	5.313705243313938	484.8717629756645	599.0672748169035	-5.755725190839694	6.931297709923664	0.7022900763358778	-0.11094452773613193	0.41529235382308843	0.11544227886056971	
1.708945551289038E12	1.6521739130434783	-6.3478260869565215	3.934782608695652	3988.278388278388	128.0	128.0	3.2385496185481095	2.0644095020782354	5.302959120626345	484.87197934055087	599.128866687878	-6.65648854961832	6.122137404580153	0.48854961832061067	-0.10344827586206896	0.41829085457271364	0.1199400299850075	
1.7089455513085698E12	1.6521739130434783	-6.358695652173913	3.934782608695652	3989.7435897435894	128.0	128.0	3.205662155826349	2.060587055753119	5.266249211579468	484.8733496514976	599.171995421886	-5.770992366412213	5.175572519083969	0.4580152671755725	-0.11394302848575712	0.41079460269865065	0.13043478260869565	
1.7089455513281013E12	1.684782608695652	-6.391304347826087	3.934782608695652	3964.8351648351645	128.0	128.0	3.1569800564026904	2.0829447606736133	5.239924817076304	484.871618732407	599.2294042383915	-4.702290076335878	5.450381679389313	0.2900763358778626	-0.10644677661169415	0.41829085457271364	0.11544227886056971	
1.708945551347633E12	1.6739130434782608	-6.380434782608695	3.902173913043478	3988.278388278388	128.0	128.0	3.098128807321645	2.0997491001783732	5.197877907500018	484.8694550835437	599.2972706910695	-4.076335877862595	6.030534351145038	0.33587786259541985	-0.1184407796101949	0.41079460269865065	0.1199400299850075	
1.7089455513671646E12	1.684782608695652	-6.315217391304348	3.9565217391304346	3989.7435897435894	128.0	128.0	3.096397888231026	2.1088364254041227	5.205234313635149	484.8644786911582	599.2523389163422	-3.6488549618320607	6.534351145038167	0.7786259541984732	-0.11544227886056971	0.416791604197901	0.11394302848575712	
1.7089455513866963E12	1.6630434782608696	-6.282608695652174	3.9239130434782608	3979.487179487179	128.0	128.0	3.220158603210283	2.049480324921647	5.26963892813193	484.86584900210494	599.0843676429233	-4.106870229007633	7.206106870229007	0.9007633587786259	-0.10494752623688156	0.4017991004497751	0.13193403298350825	
1.7089455514062278E12	1.6195652173913042	-6.293478260869565	3.8804347826086953	3989.7435897435894	128.0	128.0	3.282976541873997	2.0033224825051406	5.2862990243791375	484.8615217043784	598.9938549988098	-3.7251908396946565	6.8396946564885495	0.9923664122137404	-0.11544227886056971	0.43178410794602695	0.1169415292353823	
1.7089455514257593E12	1.6304347826086956	-6.304347826086956	3.9239130434782608	3989.7435897435894	128.0	128.0	3.331730762926431	1.9449760848255262	5.276706847751957	484.86274777206756	598.960967536088	-3.801526717557252	6.412213740458015	0.8702290076335878	-0.11394302848575712	0.41079460269865065	0.11544227886056971	
1.708945551445291E12	1.6630434782608696	-6.326086956521739	3.967391304347826	3989.7435897435894	128.0	128.0	3.33072106012357	1.933003894448745	5.263724954572315	484.8617380692647	598.9570008465053	-4.061068702290076	6.381679389312977	0.6259541984732824	-0.10794602698650674	0.4197901049475262	0.1169415292353823	
1.7089455514648225E12	1.6521739130434783	-6.358695652173913	3.8260869565217392	3989.7435897435894	128.0	128.0	3.3442078047046433	1.92983054278261	5.274038347487253	484.8599350285453	598.9520244541197	-3.6946564885496183	6.671755725190839	0.47328244274809156	-0.09895052473763118	0.4257871064467766	0.12593703148425786	
1.7089455514843542E12	1.684782608695652	-6.326086956521739	3.934782608695652	3966.300366300366	128.0	128.0	3.3371398850846155	1.9289650832373009	5.266104968321916	484.8578435013108	598.9621214821484	-3.129770992366412	6.549618320610687	1.0381679389312977	-0.1199400299850075	0.41379310344827586	0.12143928035982009	
1.7089455515038857E12	1.6630434782608696	-6.358695652173913	3.8804347826086953	3989.7435897435894	128.0	128.0	3.3499775350067065	1.9173535010043983	5.267331036011105	484.85661743362164	598.9549814408996	-2.7938931297709924	6.671755725190839	0.732824427480916	-0.1184407796101949	0.41079460269865065	0.11244377811094453	
1.7089455515234175E12	1.6521739130434783	-6.33695652173913	3.858695652173913	3989.7435897435894	128.0	128.0	3.3421883990989207	1.9252868801697356	5.267475279268656	484.8540210549857	598.9606790495728	-2.16793893129771	6.351145038167939	0.9312977099236641	-0.09895052473763118	0.39730134932533734	0.1199400299850075	
1.708945551542949E12	1.641304347826087	-6.315217391304348	3.9565217391304346	3979.487179487179	128.0	128.0	3.3394477772054407	1.9360330028573283	5.275480780062769	484.8545259063871	598.9510868729457	-2.198473282442748	6.305343511450381	0.7022900763358778	-0.09745127436281859	0.43178410794602695	0.11094452773613193	
1.7089455515624805E12	1.6630434782608696	-6.33695652173913	3.9130434782608696	3988.278388278388	128.0	128.0	3.348102372658536	1.9327154079336415	5.280817780592177	484.85135255472096	598.9553420490435	-2.8854961832061066	6.305343511450381	0.7786259541984732	-0.11544227886056971	0.3988005997001499	0.10344827586206896	
1.7089455515820122E12	1.6739130434782608	-6.326086956521739	3.9239130434782608	3988.278388278388	128.0	128.0	3.346371453567917	1.9409372736140815	5.2873087271819985	484.85200164938	598.9495001971126	-2.6564885496183206	5.908396946564885	1.1603053435114503	-0.10044977511244378	0.4197901049475262	0.1169415292353823	
1.7089455516015437E12	1.6956521739130435	-6.33695652173913	3.934782608695652	3988.278388278388	128.0	128.0	3.347092669855675	1.929109326494852	5.276201996350527	484.8528671089253	598.9637081579815	-2.2900763358778624	6.381679389312977	1.0229007633587786	-0.12443778110944527	0.40929535232383807	0.12443778110944527	
1.7089455516210754E12	1.684782608695652	-6.304347826086956	3.9239130434782608	3988.278388278388	128.0	128.0	3.34803025102976	1.9251426369121836	5.273172887941944	484.8540210549857	598.9474807915069	-1.6946564885496183	6.748091603053435	1.129770992366412	-0.12443778110944527	0.416791604197901	0.12143928035982009	
1.708945551640607E12	1.6739130434782608	-6.326086956521739	3.9456521739130435	3963.369963369963	128.0	128.0	3.3423326423564723	1.9285323534646461	5.2708649958211184	484.84839556794117	598.9398358988567	-0.9618320610687022	7.358778625954198	1.3587786259541985	-0.10494752623688156	0.41379310344827586	0.11394302848575712	
1.7089455516601387E12	1.6630434782608696	-6.293478260869565	3.9130434782608696	3989.7435897435894	128.0	128.0	3.3457944805377107	1.9268735560028025	5.272668036540513	484.8465925272218	598.9440910749545	-1.2366412213740459	7.526717557251908	1.083969465648855	-0.11094452773613193	0.41529235382308843	0.12293853073463268	
1.7089455516796702E12	1.6630434782608696	-6.315217391304348	3.891304347826087	3988.278388278388	128.0	128.0	3.3589206169749044	1.921897163617273	5.280817780592177	484.8450779730175	598.9424322774926	-1.4045801526717556	7.251908396946565	1.099236641221374	-0.12593703148425786	0.41529235382308843	0.11244377811094453	
1.7089455516992017E12	1.6521739130434783	-6.326086956521739	3.9565217391304346	3980.9523809523807	128.0	128.0	3.3584878872022497	1.9238444475942194	5.282332334796469	484.84341917555565	598.9485626159385	-1.465648854961832	6.702290076335878	0.8702290076335878	-0.12443778110944527	0.41379310344827586	0.11394302848575712	
1.7089455517187334E12	1.641304347826087	-6.304347826086956	3.9239130434782608	3988.278388278388	128.0	128.0	3.3567569681116307	1.9343742053954847	5.291131173507115	484.8459434325628	598.9465432103328	-1.2519083969465647	6.549618320610687	1.0687022900763359	-0.12743628185907047	0.40629685157421286	0.09895052473763118	
1.708945551738265E12	1.6521739130434783	-6.315217391304348	3.9565217391304346	3988.278388278388	128.0	128.0	3.36584429333738	1.9194450282388962	5.285289321576276	484.8446452432448	598.9642130093829	-1.6030534351145038	6.549618320610687	0.9312977099236641	-0.10044977511244378	0.40929535232383807	0.1169415292353823	
1.7089455517577966E12	1.6630434782608696	-6.315217391304348	3.9456521739130435	3988.278388278388	128.0	128.0	3.3748594969343544	1.918291082178483	5.2931505791128375	484.843635540442	598.956784481619	-1.099236641221374	6.977099236641221	0.8244274809160305	-0.12893553223388304	0.4077961019490255	0.1199400299850075	
1.7089455517773281E12	1.6521739130434783	-6.326086956521739	3.9239130434782608	3980.9523809523807	128.0	128.0	3.368657036859636	1.9257917315711657	5.294448768430802	484.84255371601034	598.9577220627931	-1.5725190839694656	6.3969465648854955	0.9312977099236641	-0.11244377811094453	0.3988005997001499	0.10644677661169415	
1.7089455517968599E12	1.6739130434782608	-6.326086956521739	3.9565217391304346	3963.369963369963	128.0	128.0	3.373489185987614	1.9296862995250583	5.303175485512672	484.8420488646089	598.9572893330204	-1.3587786259541985	7.007633587786259	1.0229007633587786	-0.1199400299850075	0.40629685157421286	0.12143928035982009	
1.7089455518163914E12	1.6739130434782608	-6.315217391304348	4.021739130434782	3989.7435897435894	128.0	128.0	3.377744362085386	1.9558664507706705	5.333610812856056	484.8432749322981	598.95260142715	-1.450381679389313	6.961832061068702	1.099236641221374	-0.12143928035982009	0.41079460269865065	0.12293853073463268	
1.7089455518359229E12	1.6521739130434783	-6.304347826086956	3.9891304347826084	3989.7435897435894	128.0	128.0	3.347741764514657	2.0133473889049753	5.361089153419632	484.8370003505946	598.9743100374114	-2.1068702290076335	6.65648854961832	1.2213740458015268	-0.10494752623688156	0.40629685157421286	0.1169415292353823	
1.7089455518554546E12	1.6630434782608696	-6.326086956521739	4.0	3979.487179487179	128.0	128.0	3.2996366381212043	2.07032347563785	5.3699601137590545	484.8363512559356	598.9436583451818	-2.213740458015267	6.870229007633587	1.0687022900763359	-0.10494752623688156	0.39430284857571213	0.10644677661169415	
1.708945551874986E12	1.6630434782608696	-6.326086956521739	4.032608695652174	3989.7435897435894	128.0	128.0	3.3140609638763627	1.98961937303774	5.303680336914103	484.8403179455183	598.9551978057859	-2.9770992366412212	6.778625954198473	0.9007633587786259	-0.12593703148425786	0.41529235382308843	0.10794602698650674	
1.7089455518945178E12	1.6630434782608696	-6.33695652173913	3.9565217391304346	3989.7435897435894	128.0	128.0	3.3813504435241755	1.9520440044455536	5.333394447969729	484.83505306661766	598.951303237832	-2.946564885496183	6.916030534351145	1.2671755725190839	-0.12143928035982009	0.39280359820089955	0.0944527736131934	
1.7089455519140493E12	1.6739130434782608	-6.304347826086956	3.9456521739130435	3988.278388278388	128.0	128.0	3.404789972876307	1.9088431488088546	5.313633121685162	484.8379379317687	598.9448122912422	-2.5801526717557253	7.114503816793893	1.2671755725190839	-0.11094452773613193	0.4077961019490255	0.10194902548725637	
1.708945551933581E12	1.6956521739130435	-6.304347826086956	3.9891304347826084	3989.7435897435894	128.0	128.0	3.433133772985193	1.8957891340004371	5.32892290698563	484.8373609587385	598.9533947650665	-2.16793893129771	7.236641221374046	1.099236641221374	-0.11244377811094453	0.41379310344827586	0.12143928035982009	
1.7089455519531125E12	1.6630434782608696	-6.282608695652174	4.021739130434782	3963.369963369963	128.0	128.0	3.4308980024931435	1.897520053091056	5.3284180555842	484.83952460760173	598.9526735487788	-1.8473282442748091	7.511450381679389	1.0076335877862594	-0.09745127436281859	0.40929535232383807	0.10344827586206896	
1.708945551972644E12	1.6521739130434783	-6.33695652173913	4.021739130434782	3989.7435897435894	128.0	128.0	3.2909820426681096	2.0471724328008216	5.338154475468931	484.83815429665503	599.108312023677	-2.748091603053435	7.465648854961832	1.2519083969465647	-0.10644677661169415	0.38980509745127434	0.1199400299850075	
1.7089455519921758E12	1.6195652173913042	-6.315217391304348	4.0	3988.278388278388	128.0	128.0	2.5419268062027465	2.9026070717104764	5.444533877913223	484.8426258376391	598.9364461823042	-2.610687022900763	7.068702290076335	1.2671755725190839	-0.13343328335832083	0.39280359820089955	0.09745127436281859	
1.7089455520117073E12	1.6304347826086956	-6.282608695652174	4.0	3979.487179487179	128.0	128.0	3.300141489522635	1.9847151022809868	5.284856591803622	484.8301487958609	598.8154260892185	-1.66412213740458	6.717557251908397	1.0076335877862594	-0.10794602698650674	0.40629685157421286	0.11394302848575712	
1.708945552031239E12	1.6521739130434783	-6.33695652173913	3.9891304347826084	3988.278388278388	128.0	128.0	3.304180300734079	2.0010145903843153	5.305194891118394	484.8333942691558	599.0366952463025	-2.732824427480916	5.847328244274809	0.916030534351145	-0.10644677661169415	0.41529235382308843	0.10194902548725637	
1.7089455520507705E12	1.5978260869565217	-6.271739130434782	4.130434782608695	3989.7435897435894	128.0	128.0	3.3854613763643955	2.0066400774288273	5.392101453793223	484.83231244472415	599.0439074091802	-2.9770992366412212	5.862595419847328	1.0534351145038168	-0.11544227886056971	0.41379310344827586	0.11394302848575712	
1.7089455520703022E12	1.6195652173913042	-6.304347826086956	3.9239130434782608	3988.278388278388	128.0	128.0	3.3933226339009566	2.0073612937165852	5.400683927617542	484.83361063404215	599.0452777201269	-3.2671755725190836	7.419847328244274	0.5801526717557252	-0.10494752623688156	0.40629685157421286	0.10644677661169415	
1.7089455520898337E12	1.684782608695652	-6.271739130434782	3.9891304347826084	3988.278388278388	128.0	128.0	3.387048052197463	2.0250310927666537	5.412079144964117	484.8329615393832	599.0382098005068	-1.618320610687023	8.564885496183205	0.6106870229007634	-0.11544227886056971	0.416791604197901	0.10644677661169415	
1.7089455521093652E12	1.6739130434782608	-6.304347826086956	4.010869565217392	3963.369963369963	128.0	128.0	3.3712534154955645	2.0334693233334216	5.404722738828986	484.83346639078457	599.0674911817898	-1.2061068702290076	7.419847328244274	1.5419847328244274	-0.1184407796101949	0.41529235382308843	0.1199400299850075	
1.708945552128897E12	1.6630434782608696	-6.293478260869565	4.08695652173913	3989.7435897435894	128.0	128.0	3.3531508866728412	2.053519136133091	5.406670022805932	484.83173547169395	599.0726118174329	-3.2213740458015265	6.3969465648854955	1.5572519083969465	-0.11094452773613193	0.42278860569715143	0.11244377811094453	
1.7089455521484285E12	1.6630434782608696	-6.315217391304348	4.043478260869565	3988.278388278388	128.0	128.0	3.3115367068692096	2.0811417199542195	5.392678426823429	484.83202395820905	599.1199957275386	-4.1679389312977095	5.740458015267175	1.6030534351145038	-0.11394302848575712	0.41829085457271364	0.12593703148425786	
1.7089455521679602E12	1.6630434782608696	-6.304347826086956	4.0	3979.487179487179	128.0	128.0	3.2760528655115206	2.094123613133861	5.370176478645382	484.83346639078457	599.1629080966602	-3.2213740458015265	5.206106870229007	1.4351145038167938	-0.10494752623688156	0.40929535232383807	0.10344827586206896	
1.7089455521874917E12	1.6521739130434783	-6.358695652173913	4.021739130434782	3988.278388278388	128.0	128.0	3.2210961843843684	2.1096297633206564	5.330725947705025	484.83303366101194	599.2624359443707	-2.8702290076335877	5.587786259541985	1.3129770992366412	-0.10794602698650674	0.4197901049475262	0.09895052473763118	
1.7089455522070234E12	1.6521739130434783	-6.326086956521739	4.065217391304348	3989.7435897435894	128.0	128.0	3.1606582594702557	2.1402093339215913	5.300867593391847	484.83505306661766	599.3055646783787	-3.0076335877862594	6.0	1.5419847328244274	-0.10344827586206896	0.41079460269865065	0.10794602698650674	
1.708945552226555E12	1.6630434782608696	-6.293478260869565	4.043478260869565	3988.278388278388	128.0	128.0	3.1566194482588115	2.156076092252265	5.3126955405110765	484.83087001214864	599.265897782552	-2.4580152671755724	6.152671755725191	1.5877862595419847	-0.11394302848575712	0.41529235382308843	0.13043478260869565	
1.7089455522460867E12	1.6304347826086956	-6.271739130434782	4.021739130434782	3989.7435897435894	128.0	128.0	3.2770625683143817	2.1066727765408495	5.383735344855231	484.8281293902552	599.0925895086039	-2.0610687022900764	6.473282442748092	2.0610687022900764	-0.10794602698650674	0.41379310344827586	0.11094452773613193	
1.7089455522656182E12	1.641304347826087	-6.304347826086956	4.021739130434782	3964.8351648351645	128.0	128.0	3.353295129930393	2.0341184179924037	5.3874135479227965	484.82921121468684	599.0110920680871	-2.4885496183206106	7.145038167938931	1.648854961832061	-0.12143928035982009	0.41079460269865065	0.11244377811094453	
1.7089455522851497E12	1.6195652173913042	-6.315217391304348	4.021739130434782	3989.7435897435894	128.0	128.0	3.4025542023842577	1.9713726009574652	5.373926803341723	484.82892272817173	598.9879410252502	-2.213740458015267	7.1603053435114505	1.4045801526717556	-0.11544227886056971	0.4017991004497751	0.11094452773613193	
1.7089455523046814E12	1.6195652173913042	-6.304347826086956	4.054347826086956	3989.7435897435894	128.0	128.0	3.407674838027339	1.9646652894813164	5.3723401275086555	484.83216820146663	598.9678912124505	-2.778625954198473	7.022900763358779	1.4045801526717556	-0.11544227886056971	0.424287856071964	0.09895052473763118	
1.708945552324213E12	1.6304347826086956	-6.315217391304348	3.9565217391304346	3979.487179487179	128.0	128.0	3.4120021357538866	1.955145234482912	5.367147370236799	484.8298603093458	598.9687566719957	-3.068702290076336	7.358778625954198	1.5419847328244274	-0.12143928035982009	0.4257871064467766	0.11544227886056971	
1.7089455523437446E12	1.6630434782608696	-6.271739130434782	4.0978260869565215	3988.278388278388	128.0	128.0	3.414959122533694	1.9590398024368048	5.373998924970499	484.8257493765056	598.965799685216	-2.4732824427480917	6.671755725190839	1.0687022900763359	-0.1199400299850075	0.40929535232383807	0.12443778110944527	
1.7089455523632761E12	1.6195652173913042	-6.315217391304348	3.9891304347826084	3988.278388278388	128.0	128.0	3.4116415276100076	1.9622852757317153	5.373926803341723	484.82949970120194	598.970631834344	-1.9236641221374045	6.99236641221374	1.2671755725190839	-0.10644677661169415	0.41079460269865065	0.12293853073463268	
1.7089455523828079E12	1.641304347826087	-6.260869565217391	4.010869565217392	3988.278388278388	128.0	128.0	3.4114251627236802	1.9701465332682773	5.3815716959919575	484.83065364726235	598.972218510177	-1.9389312977099236	7.114503816793893	1.66412213740458	-0.10794602698650674	0.41379310344827586	0.11394302848575712	
1.7089455524023394E12	1.608695652173913	-6.239130434782608	4.065217391304348	3988.278388278388	128.0	128.0	3.413516689958178	1.9661798436856088	5.379696533643787	484.8300045526033	598.965150590557	-2.748091603053435	6.564885496183206	1.2213740458015268	-0.09895052473763118	0.41529235382308843	0.13343328335832083	
1.7089455524218708E12	1.608695652173913	-6.260869565217391	3.9891304347826084	3964.8351648351645	128.0	128.0	3.409477878746734	1.9704350197833804	5.379912898530114	484.83123062029256	598.9698384964274	-3.2671755725190836	6.763358778625954	1.2519083969465647	-0.10794602698650674	0.40629685157421286	0.11394302848575712	
1.7089455524414026E12	1.608695652173913	-6.304347826086956	4.032608695652174	3988.278388278388	128.0	128.0	3.4130118385567476	1.9691368304654162	5.382148669022164	484.83036516074725	598.94553350753	-3.6946564885496183	6.183206106870228	1.083969465648855	-0.10794602698650674	0.4017991004497751	0.11394302848575712	
1.708945552460934E12	1.608695652173913	-6.326086956521739	4.043478260869565	3989.7435897435894	128.0	128.0	3.4164736767379855	1.9659634787992815	5.382437155537267	484.8289948498005	598.9440910749545	-2.763358778625954	6.65648854961832	1.2366412213740459	-0.10794602698650674	0.43178410794602695	0.09295352323838081	
1.7089455524804658E12	1.608695652173913	-6.315217391304348	4.076086956521739	3978.0219780219777	128.0	128.0	3.4112809194661287	1.9573088833461858	5.3685898028123145	484.8274081739674	598.9435141019243	-2.732824427480916	7.267175572519084	1.1908396946564885	-0.10494752623688156	0.3988005997001499	0.11094452773613193	
1.7089455524999973E12	1.6304347826086956	-6.304347826086956	4.08695652173913	3988.278388278388	128.0	128.0	3.4150312441624697	1.9632949785345764	5.378326222697046	484.82668695767967	598.9376001283646	-2.778625954198473	7.679389312977099	1.2519083969465647	-0.1184407796101949	0.4077961019490255	0.12293853073463268	
1.708945552519529E12	1.6195652173913042	-6.293478260869565	4.032608695652174	3989.7435897435894	128.0	128.0	3.418709447230035	1.946634882287369	5.365344329517404	484.82675907930843	598.9449565344997	-2.0763358778625953	7.801526717557252	1.1755725190839694	-0.1184407796101949	0.4077961019490255	0.11244377811094453	
1.7089455525390605E12	1.608695652173913	-6.304347826086956	4.043478260869565	3986.8131868131863	128.0	128.0	3.416617919995537	1.95449613982393	5.371114059819467	484.82452330881637	598.9300273573432	-2.6717557251908395	7.312977099236641	1.2366412213740459	-0.11244377811094453	0.424287856071964	0.11094452773613193	
1.708945552558592E12	1.576086956521739	-6.271739130434782	4.054347826086956	3989.7435897435894	128.0	128.0	3.4089009057165276	1.9530537072484142	5.361954612964942	484.826903322566	598.9378886148797	-2.595419847328244	6.961832061068702	1.3282442748091603	-0.12143928035982009	0.41079460269865065	0.11544227886056971	
1.7089455525781238E12	1.5652173913043477	-6.293478260869565	4.054347826086956	3964.8351648351645	128.0	128.0	3.4148148792761424	1.9498803555822795	5.364695234858422	484.8272639307099	598.9438747100681	-2.717557251908397	7.145038167938931	1.3129770992366412	-0.11394302848575712	0.4287856071964018	0.1199400299850075	
1.7089455525976553E12	1.5978260869565217	-6.315217391304348	4.043478260869565	3989.7435897435894	128.0	128.0	3.416690041624313	1.9544240181951542	5.371114059819467	484.8256772548768	598.9482020077946	-3.0076335877862594	6.778625954198473	0.8244274809160305	-0.11244377811094453	0.40929535232383807	0.11094452773613193	
1.708945552617187E12	1.6304347826086956	-6.293478260869565	4.065217391304348	3989.7435897435894	128.0	128.0	3.4206567312069813	1.94079303035653	5.361449761563511	484.8283457551415	598.9396916555991	-2.900763358778626	6.717557251908397	0.7938931297709924	-0.11544227886056971	0.4197901049475262	0.09895052473763118	
1.7089455526367185E12	1.608695652173913	-6.282608695652174	4.032608695652174	3979.487179487179	128.0	128.0	3.417050649768192	1.955145234482912	5.372195884251104	484.83123062029256	598.9593808602549	-2.8244274809160306	7.32824427480916	1.2061068702290076	-0.11244377811094453	0.40929535232383807	0.11394302848575712	
1.7089455526562502E12	1.6195652173913042	-6.304347826086956	4.0	3988.278388278388	128.0	128.0	3.4218827988961698	1.95175551793045	5.37363831682662	484.8292833363156	598.9476971563932	-3.2213740458015265	7.511450381679389	1.4045801526717556	-0.10794602698650674	0.40929535232383807	0.08845577211394302	
1.7089455526757817E12	1.5978260869565217	-6.293478260869565	4.043478260869565	3989.7435897435894	128.0	128.0	3.411785770867559	1.9715168442150173	5.3833026150825765	484.83065364726235	598.9509426296881	-3.099236641221374	7.404580152671755	1.3587786259541985	-0.11094452773613193	0.41079460269865065	0.10794602698650674	
1.7089455526953132E12	1.576086956521739	-6.282608695652174	4.054347826086956	3988.278388278388	128.0	128.0	3.4138051764732813	2.0215692545854154	5.435374431058697	484.8292833363156	598.9634196714663	-3.312977099236641	6.33587786259542	1.3282442748091603	-0.12143928035982009	0.41079460269865065	0.11544227886056971	
1.708945552714845E12	1.5869565217391304	-6.293478260869565	4.076086956521739	3991.208791208791	128.0	128.0	3.336274425539306	2.0711168135543843	5.40739123909369	484.82877848491415	598.9509426296881	-2.916030534351145	5.893129770992366	1.1755725190839694	-0.13343328335832083	0.39280359820089955	0.11244377811094453	
1.7089455527343765E12	1.6195652173913042	-6.315217391304348	4.054347826086956	3964.8351648351645	128.0	128.0	3.341827790955042	2.053014284731661	5.394842075686703	484.8271918090811	598.9278637084799	-2.900763358778626	5.786259541984733	0.8091603053435115	-0.10644677661169415	0.4047976011994003	0.11244377811094453	
1.7089455527539082E12	1.641304347826087	-6.293478260869565	4.043478260869565	3988.278388278388	128.0	128.0	3.388778971288082	1.9861575348565021	5.374936506144584	484.8278409037401	598.9262049110181	-2.9923664122137406	6.152671755725191	0.8396946564885496	-0.10344827586206896	0.42278860569715143	0.11544227886056971	
1.7089455527734397E12	1.5869565217391304	-6.282608695652174	4.021739130434782	3988.278388278388	128.0	128.0	3.4410671521505303	1.9307681239566947	5.371835276107225	484.83022091748967	598.921733370034	-2.8702290076335877	7.2824427480916025	0.8396946564885496	-0.11244377811094453	0.4197901049475262	0.10644677661169415	
1.7089455527929714E12	1.5543478260869565	-6.271739130434782	4.010869565217392	3976.556776556776	128.0	128.0	3.452462369497105	1.9194450282388957	5.371907397736001	484.82949970120194	598.9254115731015	-3.2061068702290076	6.8396946564885495	0.9770992366412213	-0.11094452773613193	0.41079460269865065	0.12593703148425786	
1.708945552812503E12	1.5652173913043477	-6.260869565217391	4.076086956521739	3988.278388278388	128.0	128.0	3.4660933573357293	1.9171371361180713	5.383230493453801	484.83123062029256	598.9219497349203	-3.4198473282442747	6.717557251908397	1.099236641221374	-0.10344827586206896	0.4002998500749625	0.10794602698650674	
1.7089455528320344E12	1.5869565217391304	-6.282608695652174	4.0978260869565215	3989.7435897435894	128.0	128.0	3.4909031976346014	1.944543355052871	5.4354465526874725	484.8292833363156	598.9964513774456	-3.465648854961832	5.755725190839694	1.099236641221374	-0.11394302848575712	0.42278860569715143	0.12293853073463268	
1.7089455528515662E12	1.6195652173913042	-6.293478260869565	4.08695652173913	3988.278388278388	128.0	128.0	2.8541413371731448	2.7036956195468447	5.5578369567199895	484.83209607983787	599.0558074779282	-2.610687022900763	6.213740458015267	0.6259541984732824	-0.11244377811094453	0.40929535232383807	0.11394302848575712	
1.7089455528710977E12	1.6195652173913042	-6.282608695652174	4.0978260869565215	3980.9523809523807	128.0	128.0	3.1743613689376557	2.4229982403514674	5.597359609289123	484.8257493765056	598.5850696069085	-2.5343511450381677	7.32824427480916	0.6106870229007634	-0.10494752623688156	0.40929535232383807	0.1169415292353823	
1.7089455528906294E12	1.641304347826087	-6.315217391304348	4.043478260869565	3964.8351648351645	128.0	128.0	3.306199706339801	1.9187238119511383	5.2249235182909395	484.8294275795731	598.9732282129798	-3.297709923664122	6.916030534351145	0.9007633587786259	-0.10494752623688156	0.416791604197901	0.10644677661169415	
1.708945552910161E12	1.5434782608695652	-6.293478260869565	4.184782608695652	3988.278388278388	128.0	128.0	3.414959122533694	2.0306565798111658	5.44561570234486	484.830437282376	599.017222406533	-3.7557251908396947	8.351145038167939	1.114503816793893	-0.11094452773613193	0.4077961019490255	0.10794602698650674	
1.7089455529296926E12	1.5217391304347825	-6.315217391304348	3.9456521739130435	3988.278388278388	128.0	128.0	3.416329433480434	2.026401403713394	5.442730837193828	484.8328172961256	599.0105150950569	-2.549618320610687	8.717557251908397	0.9770992366412213	-0.11244377811094453	0.4197901049475262	0.11094452773613193	
1.708945552949224E12	1.576086956521739	-6.260869565217391	4.043478260869565	3976.556776556776	128.0	128.0	3.4106318248071466	2.039888148294467	5.450519973101613	484.83389912055725	599.0285455022508	-2.213740458015267	8.045801526717558	1.0381679389312977	-0.12893553223388304	0.41079460269865065	0.09745127436281859	
1.7089455529687556E12	1.6304347826086956	-6.25	3.967391304347826	3989.7435897435894	128.0	128.0	3.3988759993166924	2.0548894470798316	5.453765446396524	484.8319518365803	599.0366231246738	-2.610687022900763	7.419847328244274	0.916030534351145	-0.10644677661169415	0.4047976011994003	0.10194902548725637	
1.7089455529882874E12	1.6304347826086956	-6.228260869565217	4.108695652173913	3989.7435897435894	128.0	128.0	3.375724956479664	2.0744344084780706	5.4501593649577345	484.8315912284364	599.0503262341412	-3.450381679389313	6.564885496183206	0.9312977099236641	-0.11244377811094453	0.41379310344827586	0.11394302848575712	
1.7089455530078188E12	1.576086956521739	-6.271739130434782	4.076086956521739	3985.3479853479853	128.0	128.0	3.346299331939141	2.087488423286488	5.433787755225629	484.83231244472415	599.0961955900426	-3.5725190839694654	5.587786259541985	0.9923664122137404	-0.1184407796101949	0.4047976011994003	0.10794602698650674	
1.7089455530273506E12	1.5543478260869565	-6.293478260869565	4.054347826086956	3988.278388278388	128.0	128.0	3.317667045315152	2.1055909521092118	5.423257997424364	484.82949970120194	599.1290830527644	-3.0076335877862594	5.0534351145038165	0.6870229007633587	-0.1184407796101949	0.41529235382308843	0.10794602698650674	
1.708945553046882E12	1.576086956521739	-6.3478260869565215	4.065217391304348	3964.8351648351645	128.0	128.0	3.2535509173334742	2.129823819377878	5.383374736711352	484.82892272817173	599.2217593457412	-2.946564885496183	5.068702290076335	0.7022900763358778	-0.12593703148425786	0.41829085457271364	0.1199400299850075	
1.7089455530664138E12	1.608695652173913	-6.358695652173913	4.065217391304348	3989.7435897435894	128.0	128.0	3.2017675878724563	2.134223238733201	5.3359908266056575	484.8354136747615	599.2758505673231	-2.595419847328244	5.526717557251908	0.5801526717557252	-0.1199400299850075	0.416791604197901	0.11394302848575712	
1.7089455530859453E12	1.6304347826086956	-6.315217391304348	4.08695652173913	3988.278388278388	128.0	128.0	3.1806359506411495	2.1685531340304776	5.349189084671627	484.83447609358745	599.2472182806991	-1.7709923664122136	6.259541984732824	1.129770992366412	-0.11544227886056971	0.40929535232383807	0.1169415292353823	
1.7089455531054768E12	1.5978260869565217	-6.260869565217391	4.08695652173913	3975.0915750915747	128.0	128.0	3.260907323468605	2.1392717527475065	5.400179076216111	484.8370003505946	599.1205727005688	-3.0839694656488548	6.213740458015267	1.1603053435114503	-0.10494752623688156	0.40629685157421286	0.11394302848575712	
1.7089455531250085E12	1.576086956521739	-6.293478260869565	4.054347826086956	3989.7435897435894	128.0	128.0	3.342116277470145	2.084170828362802	5.426287105832947	484.83786581013993	599.017222406533	-2.6717557251908395	6.351145038167939	1.1450381679389312	-0.11244377811094453	0.424287856071964	0.10344827586206896	
1.70894555314454E12	1.5869565217391304	-6.315217391304348	4.054347826086956	3989.7435897435894	128.0	128.0	3.4150312441624697	1.9996442794375753	5.414675523600045	484.8399573373744	598.9633475498375	-3.0076335877862594	6.106870229007633	1.0229007633587786	-0.11244377811094453	0.416791604197901	0.10344827586206896	
1.7089455531640718E12	1.5543478260869565	-6.304347826086956	4.0978260869565215	3988.278388278388	128.0	128.0	3.4229646233278066	1.981181142470973	5.40414576579878	484.8396688508593	598.9449565344997	-3.0839694656488548	5.923664122137405	0.7633587786259541	-0.1199400299850075	0.40629685157421286	0.12143928035982009	
1.7089455531836033E12	1.5869565217391304	-6.293478260869565	4.076086956521739	3988.278388278388	128.0	128.0	3.435874394878673	1.9745459526236004	5.410420347502273	484.8421931078665	598.9360855741603	-3.0839694656488548	5.877862595419847	0.7175572519083969	-0.1199400299850075	0.41379310344827586	0.12143928035982009	
1.708945553203135E12	1.608695652173913	-6.304347826086956	4.119565217391305	3963.369963369963	128.0	128.0	3.4295276915464035	1.97267079027543	5.402198481821833	484.8397409724881	598.937167398592	-2.259541984732824	5.557251908396946	0.5190839694656488	-0.11394302848575712	0.42278860569715143	0.11244377811094453	
1.7089455532226665E12	1.5652173913043477	-6.293478260869565	4.141304347826087	3983.8827838827838	128.0	128.0	3.4405623007490997	1.9663962085719358	5.4069585093210355	484.83801005339745	598.94553350753	-2.3053435114503817	6.5038167938931295	0.8396946564885496	-0.10494752623688156	0.40629685157421286	0.10644677661169415	
1.7089455532421982E12	1.5434782608695652	-6.33695652173913	4.043478260869565	3988.278388278388	128.0	128.0	3.439768962832566	1.9728871551617568	5.412656117994323	484.83772156688235	598.947120183363	-0.9312977099236641	6.473282442748092	0.9465648854961831	-0.10644677661169415	0.41529235382308843	0.10494752623688156	
1.7089455532617297E12	1.5543478260869565	-6.315217391304348	4.08695652173913	3973.626373626373	128.0	128.0	3.435802273249897	1.978801128721372	5.414603401971269	484.8355579180191	598.9453171426436	-2.229007633587786	6.2748091603053435	1.3587786259541985	-0.10044977511244378	0.41379310344827586	0.11394302848575712	
1.7089455532812612E12	1.576086956521739	-6.282608695652174	4.0978260869565215	3988.278388278388	128.0	128.0	3.427652529198233	1.9841381292507805	5.411790658449013	484.8366397424507	598.9520244541197	-2.4122137404580153	5.83206106870229	1.3129770992366412	-0.10044977511244378	0.416791604197901	0.1169415292353823	
1.708945553300793E12	1.608695652173913	-6.315217391304348	4.119565217391305	3989.7435897435894	128.0	128.0	3.437028340939086	1.9633671001633526	5.400395441102439	484.8373609587385	598.9440189533257	-2.33587786259542	6.259541984732824	1.2061068702290076	-0.1184407796101949	0.41829085457271364	0.11244377811094453	
1.7089455533203245E12	1.5978260869565217	-6.293478260869565	4.108695652173913	3986.8131868131863	128.0	128.0	3.4352974218484666	1.9614919378151825	5.396789359663649	484.84125552669235	598.9498608052565	-1.6030534351145038	6.717557251908397	1.1755725190839694	-0.12143928035982009	0.4257871064467766	0.10194902548725637	
1.7089455533398562E12	1.5869565217391304	-6.304347826086956	4.119565217391305	3989.7435897435894	128.0	128.0	3.432124070182332	1.9663962085719362	5.398520278754268	484.84269795926787	598.9472644266206	-1.9083969465648853	7.145038167938931	1.2671755725190839	-0.10794602698650674	0.4197901049475262	0.10644677661169415	
1.7089455533593877E12	1.5869565217391304	-6.282608695652174	4.1521739130434785	3985.3479853479853	128.0	128.0	3.4343598406743814	1.9566597886872046	5.391019629361586	484.84017370226076	598.9522408190061	-1.2366412213740459	7.603053435114504	1.114503816793893	-0.1199400299850075	0.4197901049475262	0.11094452773613193	
1.7089455533789194E12	1.576086956521739	-6.293478260869565	4.141304347826087	3988.278388278388	128.0	128.0	3.4402738142339966	1.9453366929694051	5.385610507203402	484.8411112834348	598.9312534250323	-2.4427480916030535	7.251908396946565	1.0381679389312977	-0.11544227886056971	0.416791604197901	0.11394302848575712	
1.708945553398451E12	1.641304347826087	-6.271739130434782	4.08695652173913	3988.278388278388	128.0	128.0	3.429022840144973	1.9412257601291847	5.370248600274158	484.84428463510096	598.9448122912422	-2.5038167938931295	6.854961832061068	0.9770992366412213	-0.10794602698650674	0.41379310344827586	0.10644677661169415	
1.7089455534179824E12	1.6521739130434783	-6.271739130434782	4.08695652173913	3972.161172161172	128.0	128.0	3.4267149480241477	1.9451203280830773	5.371835276107225	484.84608767582034	598.9290176545403	-2.4122137404580153	6.717557251908397	0.7175572519083969	-0.1184407796101949	0.41529235382308843	0.10794602698650674	
1.7089455534375142E12	1.6195652173913042	-6.260869565217391	4.0978260869565215	3989.7435897435894	128.0	128.0	3.4332058946139687	1.9375475570616194	5.370753451675588	484.8443567567297	598.9382492230236	-2.183206106870229	7.190839694656488	0.7633587786259541	-0.09895052473763118	0.4047976011994003	0.11244377811094453	
1.7089455534570457E12	1.641304347826087	-6.271739130434782	4.119565217391305	3988.278388278388	128.0	128.0	3.4336386243866235	1.9408651519853057	5.374503776371929	484.84846768956993	598.9314697899187	-3.0381679389312977	8.259541984732824	0.7938931297709924	-0.12743628185907047	0.41379310344827586	0.09295352323838081	
1.7089455534765774E12	1.5869565217391304	-6.260869565217391	4.108695652173913	3988.278388278388	128.0	128.0	3.4294555699176277	1.9492312609232973	5.378686830840925	484.84875617608503	598.9277915868511	-2.9923664122137406	8.198473282442748	0.6564885496183206	-0.10644677661169415	0.41829085457271364	0.1199400299850075	
1.708945553496109E12	1.576086956521739	-6.271739130434782	4.141304347826087	3989.7435897435894	128.0	128.0	3.4259937317363898	1.9391342328946868	5.3651279646310766	484.85055921680447	598.9173339506787	-2.8702290076335877	7.068702290076335	0.5190839694656488	-0.11394302848575712	0.4077961019490255	0.11244377811094453	
1.7089455535156406E12	1.5326086956521738	-6.282608695652174	4.1521739130434785	3964.8351648351645	128.0	128.0	3.437028340939086	1.9428845575910283	5.379912898530114	484.8556798524475	598.9199303293145	-3.9389312977099236	6.259541984732824	0.6412213740458015	-0.12593703148425786	0.4257871064467766	0.11244377811094453	
1.708945553535172E12	1.5434782608695652	-6.282608695652174	4.119565217391305	3988.278388278388	128.0	128.0	3.426570704766596	1.9935139409916331	5.420084645758229	484.8521458926375	598.9248346000713	-3.877862595419847	6.1679389312977095	0.6259541984732824	-0.12143928035982009	0.4287856071964018	0.1199400299850075	
1.7089455535547036E12	1.576086956521739	-6.25	4.119565217391305	3989.7435897435894	128.0	128.0	3.377023145797628	2.0439269595059106	5.420950105303539	484.8498380005167	598.9362298174178	-4.015267175572519	6.366412213740458	0.5038167938931297	-0.1184407796101949	0.41829085457271364	0.10194902548725637	
1.7089455535742354E12	1.5652173913043477	-6.25	4.0978260869565215	3972.161172161172	128.0	128.0	3.3360580606529786	2.0967921133985654	5.432850174051544	484.85019860866055	598.897933232538	-3.5114503816793894	5.969465648854961	0.5190839694656488	-0.1184407796101949	0.41829085457271364	0.10794602698650674	
1.7089455535937668E12	1.576086956521739	-6.260869565217391	4.119565217391305	3961.9047619047615	128.0	128.0	3.3575503060281644	1.9997885226951269	5.357338828723291	484.8540210549857	598.912718166437	-3.8931297709923665	5.893129770992366	0.7480916030534351	-0.11244377811094453	0.39430284857571213	0.09895052473763118	
1.7089455536132986E12	1.576086956521739	-6.282608695652174	4.141304347826087	3988.278388278388	128.0	128.0	3.428301623857215	1.9707956279272594	5.399097251784474	484.8545259063871	598.8989429353408	-3.4045801526717554	4.99236641221374	1.2519083969465647	-0.10344827586206896	0.41079460269865065	0.10494752623688156	
1.70894555363283E12	1.5652173913043477	-6.326086956521739	4.076086956521739	3986.8131868131863	128.0	128.0	3.4516690315805714	1.913170446535402	5.364839478115973	484.85971866365895	598.9112036122327	-3.3893129770992365	5.206106870229007	1.1755725190839694	-0.10344827586206896	0.42278860569715143	0.10794602698650674	
1.7089455536523618E12	1.576086956521739	-6.315217391304348	4.119565217391305	3988.278388278388	128.0	128.0	3.443591409157683	1.924493542253201	5.368084951410884	484.8553913659324	598.9027653816659	-3.3893129770992365	5.190839694656488	0.9770992366412213	-0.10344827586206896	0.43628185907046474	0.10794602698650674	
1.7089455536718933E12	1.608695652173913	-6.33695652173913	4.141304347826087	3982.4175824175823	128.0	128.0	3.490398346233171	1.9354560298271215	5.425854376060292	484.85805986619715	598.9417110612048	-3.5725190839694654	5.603053435114504	0.5954198473282443	-0.10344827586206896	0.41529235382308843	0.10794602698650674	
1.7089455536914248E12	1.608695652173913	-6.304347826086956	4.130434782608695	3986.8131868131863	128.0	128.0	3.143926041594272	2.261445791893696	5.405371833487968	484.8622429206661	599.1055714017834	-3.5572519083969465	5.633587786259541	0.916030534351145	-0.09745127436281859	0.41379310344827586	0.1169415292353823	
1.7089455537109565E12	1.608695652173913	-6.282608695652174	4.130434782608695	3988.278388278388	128.0	128.0	2.46886759625287	2.9246762901158685	5.393543886368739	484.86101685297695	598.8496117412582	-3.145038167938931	5.938931297709924	0.6717557251908397	-0.12593703148425786	0.41079460269865065	0.11544227886056971	
1.708945553730488E12	1.6304347826086956	-6.271739130434782	4.065217391304348	3970.6959706959706	128.0	128.0	3.3217779781553722	1.909059513695182	5.230837491850554	484.8593580555151	598.859636647658	-3.4351145038167936	5.587786259541985	0.9770992366412213	-0.095952023988006	0.41079460269865065	0.12293853073463268	
1.7089455537500198E12	1.6521739130434783	-6.260869565217391	4.119565217391305	3989.7435897435894	128.0	128.0	3.342765372129127	2.0260407955695148	5.368806167698642	484.8653441507035	598.9831088761222	-3.83206106870229	5.404580152671755	0.8854961832061068	-0.12143928035982009	0.4077961019490255	0.10794602698650674	
1.7089455537695513E12	1.608695652173913	-6.260869565217391	4.1521739130434785	3989.7435897435894	128.0	128.0	3.3854613763643955	2.0199104571235726	5.405371833487968	484.86188231252225	598.9963071341881	-3.8167938931297707	7.267175572519084	0.7022900763358778	-0.12443778110944527	0.40929535232383807	0.10644677661169415	
1.708945553789083E12	1.5978260869565217	-6.282608695652174	4.0	3988.278388278388	128.0	128.0	3.378032848600489	2.0329644719319906	5.41099732053248	484.8620986774086	598.9941434853248	-2.931297709923664	8.625954198473282	0.549618320610687	-0.10794602698650674	0.40629685157421286	0.10344827586206896	
1.7089455538086145E12	1.6521739130434783	-6.25	4.065217391304348	3988.278388278388	128.0	128.0	3.3716140236394434	2.0423402836728437	5.413954307312287	484.8670750697941	599.0116690411173	-3.7709923664122136	7.66412213740458	0.8091603053435115	-0.11394302848575712	0.41529235382308843	0.11544227886056971	
1.708945553828146E12	1.6195652173913042	-6.293478260869565	4.141304347826087	3964.8351648351645	128.0	128.0	3.3520690622412044	2.0718380298421417	5.423907092083346	484.8682290158545	599.0150587576699	-4.290076335877862	7.435114503816793	0.9312977099236641	-0.0914542728635682	0.41529235382308843	0.11544227886056971	
1.7089455538476777E12	1.6195652173913042	-6.326086956521739	4.141304347826087	3988.278388278388	128.0	128.0	3.3190373562618922	2.0843871932491296	5.403424549511022	484.870320543089	599.0501098692548	-4.9465648854961835	6.366412213740458	0.41221374045801523	-0.10644677661169415	0.4047976011994003	0.10794602698650674	
1.7089455538672092E12	1.5869565217391304	-6.315217391304348	4.076086956521739	3988.278388278388	128.0	128.0	3.2861498935401317	2.093690883361207	5.3798407769013386	484.87262843520983	599.0873246297032	-3.801526717557252	5.770992366412213	0.061068702290076333	-0.10644677661169415	0.4077961019490255	0.0944527736131934	
1.708945553886741E12	1.5869565217391304	-6.315217391304348	4.076086956521739	3970.6959706959706	128.0	128.0	3.2480696735465138	2.091887842641812	5.339957516188326	484.8736381380127	599.1517292441999	-2.854961832061069	6.564885496183206	0.0916030534351145	-0.095952023988006	0.41829085457271364	0.10794602698650674	
1.7089455539062725E12	1.6195652173913042	-6.326086956521739	4.08695652173913	3991.208791208791	128.0	128.0	3.1644807057953726	2.1219625618413165	5.286443267636689	484.87760482759535	599.2244999676348	-3.1908396946564883	7.343511450381679	0.2748091603053435	-0.10044977511244378	0.40929535232383807	0.11394302848575712	
1.7089455539258042E12	1.6304347826086956	-6.293478260869565	4.043478260869565	3989.7435897435894	128.0	128.0	3.125390782998894	2.1368196173691296	5.262210400368024	484.8763066382774	599.2537813489176	-3.1908396946564883	7.312977099236641	0.42748091603053434	-0.10494752623688156	0.40929535232383807	0.11094452773613193	
1.7089455539453357E12	1.6195652173913042	-6.25	4.076086956521739	3988.278388278388	128.0	128.0	3.181501410186459	2.1418681313834353	5.323369541569894	484.87774907085293	599.1280733499615	-3.2213740458015265	7.98473282442748	0.8091603053435115	-0.09895052473763118	0.42278860569715143	0.11244377811094453	
1.7089455539648672E12	1.608695652173913	-6.271739130434782	4.065217391304348	3988.278388278388	128.0	128.0	3.2627824858167753	2.0944120996489644	5.35719458546574	484.8745757191868	599.0035192970657	-3.3587786259541983	7.862595419847328	0.5801526717557252	-0.10044977511244378	0.40929535232383807	0.10644677661169415	
1.708945553984399E12	1.5869565217391304	-6.304347826086956	4.065217391304348	3964.8351648351645	128.0	128.0	3.3623103335273665	2.002889752732486	5.365200086259852	484.8782539222544	598.9341382901833	-2.5801526717557253	8.229007633587786	0.916030534351145	-0.09895052473763118	0.4077961019490255	0.1199400299850075	
1.7089455540039304E12	1.608695652173913	-6.315217391304348	4.0978260869565215	3988.278388278388	128.0	128.0	3.382504389584588	1.972815033532981	5.355319423117569	484.8807781792615	598.9283685598813	-2.732824427480916	8.717557251908397	0.549618320610687	-0.10794602698650674	0.40929535232383807	0.12443778110944527	
1.7089455540234622E12	1.641304347826087	-6.304347826086956	4.108695652173913	3989.7435897435894	128.0	128.0	3.3827928760996913	1.961491937815182	5.344284813914873	484.8795521115723	598.9180551669664	-2.9923664122137406	8.793893129770993	0.5954198473282443	-0.12143928035982009	0.41079460269865065	0.10794602698650674	
1.7089455540429937E12	1.608695652173913	-6.293478260869565	4.054347826086956	3967.7655677655675	128.0	128.0	3.3750758618206818	1.9616361810727336	5.336712042893415	484.8807060576327	598.9133672610959	-2.7022900763358777	7.938931297709924	0.33587786259541985	-0.1199400299850075	0.41379310344827586	0.09895052473763118	
1.7089455540625254E12	1.608695652173913	-6.315217391304348	4.0978260869565215	3989.7435897435894	128.0	128.0	3.3857498628794986	1.9637277083072315	5.34947757118673	484.87652300316375	598.9060829765896	-2.229007633587786	8.259541984732824	0.33587786259541985	-0.10344827586206896	0.41529235382308843	0.10794602698650674	
1.708945554082057E12	1.5652173913043477	-6.293478260869565	4.065217391304348	3988.278388278388	128.0	128.0	3.3786819432594712	1.9799550747817842	5.3586370180412555	484.8794078683148	598.9153145450729	-1.5114503816793892	9.34351145038168	0.32061068702290074	-0.11394302848575712	0.41529235382308843	0.10494752623688156	
1.7089455541015884E12	1.5869565217391304	-6.304347826086956	4.065217391304348	3988.278388278388	128.0	128.0	3.3716140236394434	1.9624295189892678	5.334043542628711	484.8798405980874	598.9136557476111	-2.183206106870229	8.13740458015267	0.3053435114503817	-0.10794602698650674	0.41379310344827586	0.10644677661169415	
1.70894555412112E12	1.5217391304347825	-6.315217391304348	4.195652173913043	3976.556776556776	128.0	128.0	3.3837304572737765	1.9715168442150168	5.355247301488793	484.88301394975355	598.914665450414	-3.450381679389313	7.145038167938931	0.3511450381679389	-0.1184407796101949	0.41079460269865065	0.11244377811094453	
1.7089455541406516E12	1.5543478260869565	-6.315217391304348	4.119565217391305	3988.278388278388	128.0	128.0	3.363536401216555	1.9844987373946594	5.348035138611214	484.882869706496	598.9044241791278	-2.519083969465649	6.305343511450381	0.7175572519083969	-0.1199400299850075	0.41379310344827586	0.1169415292353823	
1.7089455541601833E12	1.5217391304347825	-6.304347826086956	4.08695652173913	3988.278388278388	128.0	128.0	3.3745710104192512	1.9742574661084968	5.348828476527748	484.8831581930111	598.9097611796572	-2.778625954198473	6.641221374045801	0.6259541984732824	-0.1199400299850075	0.416791604197901	0.095952023988006	
1.7089455541797148E12	1.5434782608695652	-6.271739130434782	4.108695652173913	3988.278388278388	128.0	128.0	3.3657721717086044	1.97130047932869	5.337072651037294	484.88842307191175	598.9002411246588	-2.900763358778626	6.793893129770992	1.114503816793893	-0.11544227886056971	0.40929535232383807	0.1169415292353823	
1.7089455541992466E12	1.5326086956521738	-6.260869565217391	4.108695652173913	3967.7655677655675	128.0	128.0	3.366565509625138	1.9632228569058015	5.32978836653094	484.8895048963434	598.8989429353408	-2.427480916030534	7.190839694656488	1.0381679389312977	-0.11394302848575712	0.41529235382308843	0.11544227886056971	
1.708945554218778E12	1.5434782608695652	-6.228260869565217	4.130434782608695	3989.7435897435894	128.0	128.0	3.367286725912896	1.9521161260743298	5.319402851987226	484.88986550448726	598.9109151257176	-2.9618320610687023	6.2748091603053435	1.099236641221374	-0.11244377811094453	0.40929535232383807	0.10644677661169415	
1.7089455542383098E12	1.5543478260869565	-6.260869565217391	4.108695652173913	3988.278388278388	128.0	128.0	3.372407361555977	1.9478609499765582	5.320268311532535	484.88928853145705	598.8968514081063	-3.0534351145038165	5.587786259541985	1.1755725190839694	-0.09895052473763118	0.41079460269865065	0.11544227886056971	
1.7089455542578413E12	1.576086956521739	-6.271739130434782	4.108695652173913	3986.8131868131863	128.0	128.0	3.361444873982057	1.9590398024368056	5.320484676418863	484.8915243019491	598.8984380839394	-2.2748091603053435	5.175572519083969	1.3893129770992365	-0.1199400299850075	0.416791604197901	0.11094452773613193	
1.7089455542773728E12	1.5869565217391304	-6.315217391304348	4.108695652173913	3989.7435897435894	128.0	128.0	3.371037050609237	1.9394948410385657	5.310531891647803	484.8920291533505	598.888557420797	-2.351145038167939	4.564885496183206	1.3740458015267174	-0.09745127436281859	0.40629685157421286	0.11394302848575712	
1.7089455542969045E12	1.576086956521739	-6.282608695652174	4.108695652173913	3966.300366300366	128.0	128.0	3.363464279587779	1.9531979505059658	5.316662230093745	484.89267824800953	598.8969235297351	-3.0839694656488548	4.900763358778626	1.5267175572519083	-0.11394302848575712	0.4077961019490255	0.10494752623688156	
1.708945554316436E12	1.5869565217391304	-6.271739130434782	4.08695652173913	3991.208791208791	128.0	128.0	3.364257617504313	1.9617804243302857	5.3260380418345985	484.8951303833879	598.8994477867423	-2.6259541984732824	5.312977099236641	1.648854961832061	-0.09295352323838081	0.41379310344827586	0.12443778110944527	
1.7089455543359678E12	1.608695652173913	-6.25	4.108695652173913	3989.7435897435894	128.0	128.0	3.3502660215218096	1.9772144528883047	5.327480474410114	484.8974382755087	598.9079581389377	-2.9770992366412212	5.511450381679389	1.297709923664122	-0.11094452773613193	0.4287856071964018	0.1199400299850075	
1.7089455543554993E12	1.641304347826087	-6.228260869565217	4.119565217391305	3967.7655677655675	128.0	128.0	3.331802884555207	2.026689890228497	5.358492774783704	484.896717059221	598.8960580701897	-3.4351145038167936	6.0	1.4351145038167938	-0.10794602698650674	0.41379310344827586	0.11094452773613193	
1.708945554375031E12	1.6304347826086956	-6.239130434782608	4.0978260869565215	3989.7435897435894	128.0	128.0	3.271869811042525	2.080132017151358	5.352001828193883	484.898303735054	598.8754312843599	-3.5572519083969465	5.755725190839694	1.2061068702290076	-0.1184407796101949	0.41079460269865065	0.10794602698650674	
1.7089455543945625E12	1.608695652173913	-6.25	4.119565217391305	3989.7435897435894	128.0	128.0	3.301439678840599	2.015583159397025	5.317022838237624	484.89549099153174	598.8899277317438	-3.6030534351145036	6.3206106870229	1.0381679389312977	-0.1199400299850075	0.41379310344827586	0.11394302848575712	
1.708945554414094E12	1.5978260869565217	-6.228260869565217	4.076086956521739	3988.278388278388	128.0	128.0	3.3514199675822223	1.9720938172452236	5.323513784827446	484.89577947804685	598.8724021759513	-3.83206106870229	6.152671755725191	0.916030534351145	-0.11394302848575712	0.41829085457271364	0.10494752623688156	
1.7089455544336257E12	1.608695652173913	-6.195652173913043	4.010869565217392	3970.6959706959706	128.0	128.0	3.3623824551561423	1.9353839081983457	5.297766363354488	484.8992413162281	598.8756476492462	-4.427480916030534	6.534351145038167	0.5038167938931297	-0.11094452773613193	0.41829085457271364	0.11544227886056971	
1.7089455544531572E12	1.608695652173913	-6.195652173913043	4.010869565217392	3988.278388278388	128.0	128.0	3.3789704297745744	1.9290372048660758	5.30800763464065	484.8977267620238	598.8827155688663	-4.885496183206107	6.702290076335878	0.732824427480916	-0.10044977511244378	0.4017991004497751	0.11394302848575712	
1.708945554472689E12	1.5869565217391304	-6.217391304347826	4.021739130434782	3988.278388278388	128.0	128.0	3.381134078637848	1.9410093952428578	5.322143473880706	484.89621220781953	598.8794700955714	-5.343511450381679	6.854961832061068	0.3511450381679389	-0.11394302848575712	0.4257871064467766	0.11244377811094453	
1.7089455544922205E12	1.608695652173913	-6.228260869565217	4.0978260869565215	3988.278388278388	128.0	128.0	3.1983057496912184	2.159393687175952	5.35769943686717	484.89296673452463	599.0278242859631	-6.961832061068702	6.564885496183206	-0.030534351145038167	-0.10794602698650674	0.416791604197901	0.12143928035982009	
1.7089455545117522E12	1.6195652173913042	-6.282608695652174	4.0	3966.300366300366	128.0	128.0	2.472185191176557	2.9345569532581512	5.406742144434708	484.8962843294483	598.8889180289409	-7.66412213740458	7.49618320610687	-0.13740458015267176	-0.09895052473763118	0.4077961019490255	0.09745127436281859	
1.7089455545312837E12	1.608695652173913	-6.293478260869565	3.9891304347826084	3989.7435897435894	128.0	128.0	3.262854607445551	2.000293374096558	5.263147981542109	484.89073096403257	598.808141804712	-6.900763358778626	7.8473282442748085	-0.2748091603053435	-0.1184407796101949	0.41079460269865065	0.10494752623688156	
1.7089455545508152E12	1.6304347826086956	-6.326086956521739	4.010869565217392	3988.278388278388	128.0	128.0	3.2671819051720985	2.0278438362889095	5.295025741461008	484.8923897614944	598.9586596439672	-7.251908396946565	7.267175572519084	0.04580152671755725	-0.11394302848575712	0.4077961019490255	0.12593703148425786	
1.708945554570347E12	1.5652173913043477	-6.293478260869565	4.239130434782608	3985.3479853479853	128.0	128.0	3.3361301822817544	2.0465954597706157	5.38272564205237	484.89138005869154	598.9415668179473	-8.0	8.80916030534351	-0.2900763358778626	-0.12143928035982009	0.41529235382308843	0.11544227886056971	
1.7089455545898784E12	1.5869565217391304	-6.33695652173913	3.9565217391304346	3988.278388278388	128.0	128.0	3.326249519139471	2.0398881482944664	5.366137667433938	484.89109157217644	598.9491395889687	-6.625954198473282	9.709923664122137	-0.21374045801526717	-0.10494752623688156	0.40929535232383807	0.1169415292353823	
1.7089455546094102E12	1.608695652173913	-6.315217391304348	3.9891304347826084	3967.7655677655675	128.0	128.0	3.3210567618676143	2.059937961094137	5.380994722961751	484.8921733966081	598.955486292301	-5.129770992366412	9.114503816793892	-0.015267175572519083	-0.12593703148425786	0.4077961019490255	0.13043478260869565	
1.7089455546289417E12	1.5978260869565217	-6.304347826086956	4.065217391304348	3989.7435897435894	128.0	128.0	3.303531206075097	2.0582070420035175	5.361738248078614	484.8894327747146	598.984767673584	-6.137404580152672	8.290076335877862	-0.2748091603053435	-0.1199400299850075	0.41379310344827586	0.12143928035982009	
1.7089455546484734E12	1.641304347826087	-6.326086956521739	4.065217391304348	3988.278388278388	128.0	128.0	3.2771346899431575	2.0740738003341916	5.351208490277349	484.89073096403257	598.9999132156269	-7.236641221374046	7.068702290076335	-0.3511450381679389	-0.11544227886056971	0.41379310344827586	0.12893553223388304	
1.708945554668005E12	1.5978260869565217	-6.380434782608695	4.0	3966.300366300366	128.0	128.0	3.2485745249479443	2.0838102202189237	5.332384745166868	484.8890721665707	599.0554468697843	-7.6183206106870225	5.847328244274809	-0.2595419847328244	-0.11094452773613193	0.41829085457271364	0.11544227886056971	
1.7089455546875364E12	1.576086956521739	-6.3478260869565215	3.9565217391304346	3991.208791208791	128.0	128.0	3.2002530336681647	2.108620060517795	5.30887309418596	484.88712488259375	599.1079514155331	-6.106870229007633	5.251908396946565	-0.16793893129770993	-0.11394302848575712	0.41079460269865065	0.1199400299850075	
1.708945554707068E12	1.5978260869565217	-6.3478260869565215	3.934782608695652	3988.278388278388	128.0	128.0	3.1437096767079447	2.114750398963738	5.258460075671683	484.88359092278375	599.1999786138509	-4.702290076335878	5.801526717557252	0.3053435114503817	-0.10644677661169415	0.41079460269865065	0.11244377811094453	
1.7089455547265996E12	1.5652173913043477	-6.293478260869565	3.9782608695652173	3988.278388278388	128.0	128.0	3.104259145767587	2.1246310621060207	5.228890207873608	484.8858266932758	599.1950022214654	-4.091603053435114	6.030534351145038	0.3969465648854962	-0.11244377811094453	0.41379310344827586	0.10344827586206896	
1.7089455547461313E12	1.5652173913043477	-6.239130434782608	3.934782608695652	3989.7435897435894	128.0	128.0	3.1489024339798015	2.1223952916139717	5.271297725593773	484.8866921528211	599.0804009533407	-4.702290076335878	5.984732824427481	0.549618320610687	-0.1184407796101949	0.39730134932533734	0.11544227886056971	
1.7089455547656628E12	1.5978260869565217	-6.239130434782608	3.967391304347826	3989.7435897435894	128.0	128.0	3.237756280631576	2.080348382037686	5.318104662669262	484.88568245001824	598.9531784001801	-4.473282442748092	5.709923664122138	0.8396946564885496	-0.11094452773613193	0.4257871064467766	0.10794602698650674	
1.7089455547851946E12	1.608695652173913	-6.271739130434782	3.9456521739130435	3989.7435897435894	128.0	128.0	3.2981942055456885	2.025824430683188	5.324018636228876	484.8877739772528	598.8865380151914	-4.030534351145038	5.404580152671755	0.4580152671755725	-0.09745127436281859	0.4017991004497751	0.1169415292353823	
1.708945554804726E12	1.5978260869565217	-6.326086956521739	3.934782608695652	3989.7435897435894	128.0	128.0	3.3394477772054407	1.974906560767479	5.31435433797292	484.88344667952623	598.8592760395142	-4.488549618320611	5.465648854961832	0.366412213740458	-0.1199400299850075	0.416791604197901	0.11394302848575712	
1.7089455548242576E12	1.6195652173913042	-6.369565217391304	3.9130434782608696	3964.8351648351645	128.0	128.0	3.351852697354877	1.9534143153922932	5.30526701274717	484.8833745578974	598.8788210009124	-4.2748091603053435	5.847328244274809	0.6259541984732824	-0.09895052473763118	0.4047976011994003	0.13043478260869565	
1.7089455548437893E12	1.6304347826086956	-6.326086956521739	3.9456521739130435	3991.208791208791	128.0	128.0	3.3503381431505854	1.9511785449002437	5.301516688050829	484.8848169904729	598.8791816090562	-5.083969465648854	6.1679389312977095	1.099236641221374	-0.11244377811094453	0.41379310344827586	0.1169415292353823	
1.7089455548633208E12	1.6521739130434783	-6.326086956521739	3.934782608695652	3988.278388278388	128.0	128.0	3.3544490759908054	1.9493033825520731	5.303752458542879	484.883518801155	598.8791816090562	-4.198473282442748	5.404580152671755	0.8854961832061068	-0.11394302848575712	0.4002998500749625	0.10794602698650674	
1.7089455548828525E12	1.608695652173913	-6.326086956521739	3.934782608695652	3988.278388278388	128.0	128.0	3.355242413907339	1.9495918690671763	5.304834282974515	484.87904726017086	598.8892786370849	-3.6030534351145036	6.366412213740458	1.0076335877862594	-0.11544227886056971	0.4017991004497751	0.12443778110944527	
1.708945554902384E12	1.608695652173913	-6.293478260869565	3.858695652173913	3988.278388278388	128.0	128.0	3.365988536594932	1.9552894777404646	5.321278014335396	484.8782539222544	598.8796143388289	-2.8244274809160306	5.969465648854961	1.114503816793893	-0.12143928035982009	0.41529235382308843	0.11544227886056971	
1.7089455549219158E12	1.641304347826087	-6.293478260869565	3.9782608695652173	3972.161172161172	128.0	128.0	3.3672146042841202	1.9511785449002446	5.318393149184365	484.87847028714066	598.8821385958361	-4.3206106870229	6.122137404580153	0.7633587786259541	-0.1199400299850075	0.40929535232383807	0.11094452773613193	
1.7089455549414473E12	1.6521739130434783	-6.293478260869565	3.902173913043478	3988.278388278388	128.0	128.0	3.362815184928797	1.9707956279272594	5.333610812856056	484.87738846270906	598.8814173795482	-4.33587786259542	5.755725190839694	0.8091603053435115	-0.11244377811094453	0.4017991004497751	0.12143928035982009	
1.7089455549609788E12	1.6521739130434783	-6.282608695652174	3.902173913043478	3988.278388278388	128.0	128.0	3.3623824551561423	1.96855985743521	5.330942312591352	484.87702785456514	598.8710318650045	-4.442748091603053	5.312977099236641	0.5343511450381679	-0.11394302848575712	0.41829085457271364	0.1199400299850075	
1.7089455549805105E12	1.6739130434782608	-6.3478260869565215	3.902173913043478	3966.300366300366	128.0	128.0	3.359064860232456	1.9663240869431604	5.325388947175616	484.87616239501983	598.8768015953066	-4.3206106870229	6.381679389312977	0.2900763358778626	-0.11544227886056971	0.424287856071964	0.11394302848575712	
1.708945555000042E12	1.6304347826086956	-6.33695652173913	3.9456521739130435	3989.7435897435894	128.0	128.0	3.3616612388683844	1.9618525459590614	5.323513784827446	484.8729890433537	598.8699500405729	-2.8854961832061066	7.435114503816793	0.6870229007633587	-0.11544227886056971	0.40929535232383807	0.11394302848575712	
