"sep=	"
Shimmer_6D72_TimestampSync_Unix_CAL	Shimmer_6D72_Accel_LN_X_CAL	Shimmer_6D72_Accel_LN_Y_CAL	Shimmer_6D72_Accel_LN_Z_CAL	Shimmer_6D72_Battery_CAL	Shimmer_6D72_ECG_EMG_Status1_CAL	Shimmer_6D72_ECG_EMG_Status2_CAL	Shimmer_6D72_ECG_LA-RA_24BIT_CAL	Shimmer_6D72_ECG_LL-LA_24BIT_CAL	Shimmer_6D72_ECG_LL-RA_24BIT_CAL	Shimmer_6D72_ECG_RESP_24BIT_CAL	Shimmer_6D72_ECG_Vx-RL_24BIT_CAL	Shimmer_6D72_Gyro_X_CAL	Shimmer_6D72_Gyro_Y_CAL	Shimmer_6D72_Gyro_Z_CAL	Shimmer_6D72_Mag_X_CAL	Shimmer_6D72_Mag_Y_CAL	Shimmer_6D72_Mag_Z_CAL	
ms	m/(s^2)	m/(s^2)	m/(s^2)	mV	no_units	no_units	mV	mV	mV	mV	mV	deg/s	deg/s	deg/s	local_flux	local_flux	local_flux	
1.708945350541539E12	1.5108695652173914	-6.25	4.119565217391305	3994.139194139194	128.0	128.0	2.3753979653594453	0.13090075622806063	2.506298721587506	484.9546307271279	599.06806815482	-3.465648854961832	9.297709923664122	0.8244274809160305	-0.1199400299850075	0.416791604197901	0.12143928035982009	
1.708945350561071E12	1.5652173913043477	-6.217391304347826	4.163043478260869	3983.8827838827838	128.0	128.0	2.3762634249047547	0.13522805395460802	2.5114914788593627	484.9544143622416	599.0656881410704	-2.7938931297709924	8.0	1.0534351145038168	-0.1184407796101949	0.41529235382308843	0.1199400299850075	
1.708945350580603E12	1.576086956521739	-6.228260869565217	4.1521739130434785	3992.6739926739924	128.0	128.0	2.3541220848705873	0.1572251507312239	2.511347235601811	484.9479955372805	599.086747656673	-3.4045801526717554	7.8473282442748085	1.1450381679389312	-0.11244377811094453	0.40929535232383807	0.10644677661169415	
1.7089453506001348E12	1.5652173913043477	-6.25	4.271739130434782	3994.139194139194	128.0	128.0	2.3390486644564468	0.17402949023598335	2.51307815469243	484.94835614542444	599.1102593076539	-5.129770992366412	6.351145038167939	0.8396946564885496	-0.11544227886056971	0.43178410794602695	0.12143928035982009	
1.7089453506196667E12	1.5543478260869565	-6.293478260869565	4.206521739130435	3992.6739926739924	128.0	128.0	2.3114982022640946	0.19739689795933968	2.5088951002234343	484.9487167535683	599.1524504604877	-4.99236641221374	4.717557251908397	0.7480916030534351	-0.10644677661169415	0.41079460269865065	0.11244377811094453	
1.7089453506391987E12	1.5326086956521738	-6.271739130434782	4.184782608695652	3992.6739926739924	128.0	128.0	2.2713264550359793	0.21751883238778502	2.4888452874237643	484.9493658482273	599.186780355785	-3.7404580152671754	4.961832061068702	0.7480916030534351	-0.11544227886056971	0.40629685157421286	0.10644677661169415	
1.7089453506587305E12	1.5217391304347825	-6.326086956521739	4.195652173913043	3969.230769230769	128.0	128.0	2.227692869626626	0.23922744264929774	2.466920312275924	484.95145737546176	599.2366164012691	-3.5267175572519083	5.587786259541985	0.7633587786259541	-0.12143928035982009	0.42278860569715143	0.10794602698650674	
1.7089453506782625E12	1.5543478260869565	-6.304347826086956	4.184782608695652	3994.139194139194	128.0	128.0	2.1679040393714955	0.257474214729573	2.4253782541010684	484.94922160496975	599.2969100829256	-3.0534351145038165	5.7251908396946565	1.114503816793893	-0.1184407796101949	0.4287856071964018	0.11244377811094453	
1.7089453506977944E12	1.608695652173913	-6.282608695652174	4.195652173913043	3992.6739926739924	128.0	128.0	2.1563645787673686	0.28524104180825294	2.4416056205756216	484.95001494288624	599.2609213901665	-2.717557251908397	6.625954198473282	1.2366412213740459	-0.12593703148425786	0.43628185907046474	0.11244377811094453	
1.7089453507173262E12	1.576086956521739	-6.25	4.173913043478261	3983.8827838827838	128.0	128.0	2.265989454506571	0.23223164465804613	2.498221099164617	484.94878887519707	599.1138653890927	-3.0076335877862594	6.6106870229007635	0.9770992366412213	-0.12593703148425786	0.41529235382308843	0.11544227886056971	
1.7089453507368582E12	1.5652173913043477	-6.25	4.141304347826087	3992.6739926739924	128.0	128.0	2.331403771806213	0.1736688820921044	2.5050726538983175	484.94676946959135	599.0425370982334	-3.4045801526717554	6.778625954198473	1.0229007633587786	-0.10794602698650674	0.416791604197901	0.11094452773613193	
1.7089453507563901E12	1.5543478260869565	-6.271739130434782	4.217391304347826	3992.6739926739924	128.0	128.0	2.362776680323682	0.1293862020237686	2.4921628823474506	484.9462646181899	599.0179436228209	-2.763358778625954	7.2824427480916025	0.9770992366412213	-0.1184407796101949	0.42278860569715143	0.11244377811094453	
1.7089453507759219E12	1.5326086956521738	-6.271739130434782	4.228260869565217	3992.6739926739924	128.0	128.0	2.372440978579638	0.12044312005557067	2.4928840986352085	484.9453991586446	599.0051780945275	-3.4198473282442747	6.3206106870229	0.9618320610687022	-0.11394302848575712	0.42278860569715143	0.12293853073463268	
1.7089453507954539E12	1.5652173913043477	-6.25	4.184782608695652	3985.3479853479853	128.0	128.0	2.380446479373751	0.10897578108021966	2.4894222604539706	484.9415767123195	598.9989756344528	-2.931297709923664	6.045801526717557	1.083969465648855	-0.11094452773613193	0.41079460269865065	0.09745127436281859	
1.7089453508149856E12	1.5543478260869565	-6.293478260869565	4.228260869565217	3973.626373626373	128.0	128.0	2.379364654942114	0.11099518668594177	2.490359841628056	484.9424421718648	599.0046011214973	-3.2213740458015265	6.870229007633587	0.6717557251908397	-0.12143928035982009	0.4077961019490255	0.11244377811094453	
1.7089453508345176E12	1.5652173913043477	-6.282608695652174	4.141304347826087	3994.139194139194	128.0	128.0	2.3864325745621415	0.10839880805001334	2.494831382612155	484.94179307720583	599.0056108243002	-2.1374045801526718	6.152671755725191	1.2213740458015268	-0.10344827586206896	0.4002998500749625	0.11244377811094453	
1.7089453508540496E12	1.5652173913043477	-6.282608695652174	4.25	3994.139194139194	128.0	128.0	2.3857113582743836	0.11784674141964224	2.503558099694026	484.94309126652377	599.0026538375204	-3.068702290076336	5.9541984732824424	0.9312977099236641	-0.1199400299850075	0.41379310344827586	0.10344827586206896	
1.7089453508735813E12	1.5652173913043477	-6.293478260869565	4.217391304347826	3985.3479853479853	128.0	128.0	2.3833313445247826	0.11409641672330073	2.4974277612480833	484.94749068587913	598.9849119168415	-2.5801526717557253	6.65648854961832	0.7938931297709924	-0.11544227886056971	0.416791604197901	0.095952023988006	
1.7089453508931133E12	1.5434782608695652	-6.282608695652174	4.228260869565217	3992.6739926739924	128.0	128.0	2.3854228717592805	0.10046542888467647	2.485888300643957	484.94705795610645	598.9971004721046	-2.8244274809160306	6.793893129770992	0.6870229007633587	-0.12593703148425786	0.4077961019490255	0.10494752623688156	
1.7089453509126453E12	1.5434782608695652	-6.315217391304348	4.25	3994.139194139194	128.0	128.0	2.377850100737822	0.11214913274635485	2.489999233484177	484.9502313077726	599.0002738237707	-1.9694656488549618	7.923664122137405	0.8396946564885496	-0.12143928035982009	0.41529235382308843	0.11244377811094453	
1.708945350932177E12	1.5543478260869565	-6.33695652173913	4.304347826086956	3994.139194139194	128.0	128.0	2.3806628442600783	0.09909511793793646	2.479757962198015	484.9532604161812	598.9860658629019	-1.6335877862595418	8.335877862595419	0.8702290076335878	-0.10344827586206896	0.42278860569715143	0.11544227886056971	
1.708945350951709E12	1.5434782608695652	-6.326086956521739	4.293478260869565	3985.3479853479853	128.0	128.0	2.383908317554989	0.09967209096814278	2.4835804085231317	484.9484282670532	598.983469484266	-1.450381679389313	8.290076335877862	1.0534351145038168	-0.11094452773613193	0.42278860569715143	0.10794602698650674	
1.708945350971241E12	1.5326086956521738	-6.25	4.239130434782608	3967.7655677655675	128.0	128.0	2.3822495200931457	0.10969699736797756	2.4919465174611233	484.95037555103016	598.9704875910863	-2.030534351145038	7.206106870229007	1.5114503816793892	-0.11394302848575712	0.4257871064467766	0.11544227886056971	
1.7089453509907727E12	1.5217391304347825	-6.282608695652174	4.282608695652174	3994.139194139194	128.0	128.0	2.3681858024818663	0.17345251720577703	2.5416383196876433	484.94705795610645	598.9756082267295	-2.6259541984732824	7.0534351145038165	0.7480916030534351	-0.1184407796101949	0.4257871064467766	0.11244377811094453	
1.7089453510103047E12	1.4891304347826086	-6.271739130434782	4.206521739130435	3994.139194139194	128.0	128.0	2.3015454174930357	0.22206249500065978	2.5236079124936954	484.94951009148485	598.9730839697223	-1.7099236641221374	7.480916030534351	0.9007633587786259	-0.11094452773613193	0.4332833583208396	0.1199400299850075	
1.7089453510298367E12	1.5108695652173914	-6.239130434782608	4.217391304347826	3982.4175824175823	128.0	128.0	2.2913041462068735	0.22098067056902293	2.5122848167758964	484.95419799735527	598.9611839009743	-2.3664122137404577	6.793893129770992	0.9312977099236641	-0.1184407796101949	0.42278860569715143	0.10194902548725637	
1.7089453510493684E12	1.5217391304347825	-6.260869565217391	4.239130434782608	3992.6739926739924	128.0	128.0	2.3296007310868183	0.14604629827097648	2.475647029357795	484.9546307271279	598.9645736175268	-2.229007633587786	7.3893129770992365	1.0076335877862594	-0.1199400299850075	0.40929535232383807	0.13193403298350825	
1.7089453510689004E12	1.5434782608695652	-6.293478260869565	4.206521739130435	3994.139194139194	128.0	128.0	2.3864325745621415	0.08654595453094904	2.4729785290930906	484.95874165996815	598.9795749163121	-1.816793893129771	7.480916030534351	0.8702290076335878	-0.11394302848575712	0.41079460269865065	0.13043478260869565	
1.7089453510884324E12	1.5543478260869565	-6.271739130434782	4.195652173913043	3992.6739926739924	128.0	128.0	2.3945823186138058	0.0745737641541675	2.4691560827679733	484.95686649761996	598.9771949025625	-1.114503816793893	6.885496183206107	0.9923664122137404	-0.12143928035982009	0.41529235382308843	0.10794602698650674	
1.708945351107964E12	1.5326086956521738	-6.304347826086956	4.239130434782608	3992.6739926739924	128.0	128.0	2.4066266306193627	0.06736160127658897	2.4739882318959516	484.9594628762559	598.9697663747986	-1.8931297709923662	7.068702290076335	0.9465648854961831	-0.12743628185907047	0.4197901049475262	0.1169415292353823	
1.708945351127496E12	1.5434782608695652	-6.282608695652174	4.271739130434782	3967.7655677655675	128.0	128.0	2.456895405876089	0.10818244316368597	2.565077849039775	484.95895802485444	599.0129672304353	-2.091603053435114	7.007633587786259	0.42748091603053434	-0.1184407796101949	0.41829085457271364	0.12593703148425786	
1.708945351147028E12	1.5434782608695652	-6.25	4.228260869565217	3994.139194139194	128.0	128.0	1.9854363185687447	0.5838967065688023	2.569333025137547	484.96342956583857	599.1584365556761	-2.0763358778625953	6.427480916030534	0.9007633587786259	-0.10794602698650674	0.42728635682158916	0.10344827586206896	
1.7089453511665598E12	1.5434782608695652	-6.228260869565217	4.293478260869565	3992.6739926739924	128.0	128.0	1.8878557548350996	0.8100701344096823	2.697925889244782	484.9624198630357	598.636059598453	-1.3129770992366412	7.374045801526718	0.9312977099236641	-0.11544227886056971	0.42728635682158916	0.10644677661169415	
1.7089453511860918E12	1.576086956521739	-6.282608695652174	4.173913043478261	3983.8827838827838	128.0	128.0	2.277673158368249	0.03685415230442901	2.314527310672678	484.9642950253839	598.9683239422232	-2.351145038167939	5.9541984732824424	0.8702290076335878	-0.10794602698650674	0.424287856071964	0.12143928035982009	
1.7089453512056235E12	1.5434782608695652	-6.25	4.413043478260869	3992.6739926739924	128.0	128.0	2.3409238268046173	0.20121934428445654	2.542143171089074	484.96256410629326	599.0377049491054	-2.1068702290076335	7.297709923664121	0.6564885496183206	-0.10644677661169415	0.41529235382308843	0.11244377811094453	
1.7089453512251555E12	1.4891304347826086	-6.217391304347826	4.228260869565217	3992.6739926739924	128.0	128.0	2.3539778416130357	0.1997769117089403	2.553754753321976	484.96407866049753	599.0498213827398	-1.816793893129771	8.198473282442748	0.33587786259541985	-0.12593703148425786	0.41829085457271364	0.10494752623688156	
1.7089453512446875E12	1.4891304347826086	-6.206521739130435	4.206521739130435	3994.139194139194	128.0	128.0	2.3489293275987304	0.19703628981546029	2.5459656174141907	484.97006475568594	599.0493165313384	-1.7251908396946565	8.122137404580153	0.2595419847328244	-0.10344827586206896	0.4287856071964018	0.10194902548725637	
1.7089453512642192E12	1.5652173913043477	-6.228260869565217	4.206521739130435	3992.6739926739924	128.0	128.0	2.329384366200491	0.21715822424390607	2.546542590444397	484.9663144309896	599.0685008845927	-1.66412213740458	6.625954198473282	0.366412213740458	-0.1199400299850075	0.40629685157421286	0.10344827586206896	
1.7089453512837512E12	1.5434782608695652	-6.25	4.271739130434782	3978.0219780219777	128.0	128.0	2.3168352027935035	0.22372129246250294	2.5405564952560065	484.96919929614063	599.075785169099	-2.5343511450381677	5.83206106870229	0.6564885496183206	-0.1184407796101949	0.41829085457271364	0.11244377811094453	
1.7089453513032832E12	1.5869565217391304	-6.25	4.271739130434782	3994.139194139194	128.0	128.0	2.2840198617005183	0.2555990523814029	2.539618914081921	484.97778176996496	599.1081677804194	-3.2671755725190836	3.9847328244274807	0.732824427480916	-0.12143928035982009	0.41829085457271364	0.11544227886056971	
1.708945351322815E12	1.576086956521739	-6.260869565217391	4.228260869565217	3992.6739926739924	128.0	128.0	2.2636815623857456	0.26122453942591406	2.5249061018116596	484.97799813485125	599.1435073785195	-2.015267175572519	4.534351145038168	0.183206106870229	-0.12143928035982009	0.4257871064467766	0.10194902548725637	
1.708945351342347E12	1.5434782608695652	-6.271739130434782	4.282608695652174	3980.9523809523807	128.0	128.0	2.1894684063754566	0.29641989426850035	2.485888300643957	484.9821811893203	599.222480562029	-1.4045801526717556	5.343511450381679	0.3511450381679389	-0.10644677661169415	0.4257871064467766	0.11544227886056971	
1.708945351361879E12	1.576086956521739	-6.271739130434782	4.282608695652174	3992.6739926739924	128.0	128.0	2.1444645100193633	0.29476109680665674	2.43922560682602	484.9833351353807	599.2637341336888	-2.381679389312977	6.213740458015267	0.5038167938931297	-0.12593703148425786	0.42278860569715143	0.11544227886056971	
1.7089453513814106E12	1.5652173913043477	-6.25	4.293478260869565	3992.6739926739924	128.0	128.0	2.128958359832568	0.30125204339647826	2.4302104032290464	484.9859315140166	599.2624359443707	-1.648854961832061	6.0	0.5954198473282443	-0.11244377811094453	0.41379310344827586	0.11394302848575712	
1.7089453514009426E12	1.5543478260869565	-6.228260869565217	4.326086956521739	3992.6739926739924	128.0	128.0	2.2171631118253603	0.28855863673193927	2.5057217485572996	484.9896097170842	599.1198514842811	-1.1908396946564885	5.786259541984733	0.8854961832061068	-0.1184407796101949	0.41829085457271364	0.10494752623688156	
1.7089453514204746E12	1.576086956521739	-6.228260869565217	4.260869565217392	3992.6739926739924	128.0	128.0	2.2923138490097346	0.23345771234723456	2.525771561356969	484.99263882549275	599.0338103811515	-1.0687022900763359	6.152671755725191	0.9618320610687022	-0.12143928035982009	0.4332833583208396	0.11244377811094453	
1.7089453514400063E12	1.5869565217391304	-6.25	4.33695652173913	3967.7655677655675	128.0	128.0	2.3306104338896794	0.175183436296396	2.5057938701860754	484.9927830687503	598.9946483367263	-1.1908396946564885	6.183206106870228	0.48854961832061067	-0.1184407796101949	0.41829085457271364	0.11544227886056971	
1.7089453514595383E12	1.5869565217391304	-6.239130434782608	4.380434782608695	3992.6739926739924	128.0	128.0	2.338976542827671	0.15672029932979337	2.4956968421574643	484.99206185246254	598.979935524456	-1.0381679389312977	5.847328244274809	0.6717557251908397	-0.11244377811094453	0.40929535232383807	0.12143928035982009	
1.7089453514790703E12	1.608695652173913	-6.25	4.271739130434782	3992.6739926739924	128.0	128.0	2.34481839475851	0.15030147436874808	2.495119869127258	484.99292731200785	598.9804403758575	-0.9923664122137404	6.0	0.47328244274809156	-0.11394302848575712	0.4047976011994003	0.1199400299850075	
1.708945351498602E12	1.576086956521739	-6.184782608695652	4.380434782608695	3982.4175824175823	128.0	128.0	2.341428678206048	0.143810527778927	2.485239205984975	484.99891340719626	598.9845513086976	-1.129770992366412	6.076335877862595	1.0229007633587786	-0.1184407796101949	0.41079460269865065	0.11544227886056971	
1.708945351518134E12	1.5543478260869565	-6.119565217391304	4.206521739130435	3992.6739926739924	128.0	128.0	2.3534008685828294	0.14900328505078342	2.502404153633613	484.999634623484	598.9874361738487	-1.450381679389313	6.549618320610687	0.3969465648854962	-0.11544227886056971	0.41379310344827586	0.1169415292353823	
1.708945351537666E12	1.5326086956521738	-6.119565217391304	4.380434782608695	3992.6739926739924	128.0	128.0	2.3419335296074784	0.1585954616779639	2.5005289912854423	484.99473035272723	598.9833973626372	-3.0229007633587783	5.374045801526718	0.6259541984732824	-0.10794602698650674	0.416791604197901	0.10344827586206896	
1.7089453515571978E12	1.576086956521739	-6.1521739130434785	4.304347826086956	3992.6739926739924	128.0	128.0	2.337894718396034	0.16479792175268182	2.502692640148716	485.000932812802	598.9732282129798	-2.748091603053435	4.030534351145038	0.7480916030534351	-0.12593703148425786	0.4257871064467766	0.11244377811094453	
1.7089453515767297E12	1.5652173913043477	-6.184782608695652	4.260869565217392	3992.6739926739924	128.0	128.0	2.34344808381177	0.15614332629958705	2.499591410111357	485.00071644791564	598.9815943219179	-3.7404580152671754	5.099236641221374	0.7022900763358778	-0.1199400299850075	0.4197901049475262	0.11094452773613193	
1.7089453515962615E12	1.576086956521739	-6.1521739130434785	4.304347826086956	3992.6739926739924	128.0	128.0	2.3340722720709173	0.15765788050387863	2.491730152574796	484.9984085557948	598.985705254758	-3.6030534351145036	6.152671755725191	1.0534351145038168	-0.1199400299850075	0.416791604197901	0.1169415292353823	
1.7089453516157935E12	1.5543478260869565	-6.173913043478261	4.271739130434782	3994.139194139194	128.0	128.0	2.3456838543038194	0.14893116342200807	2.4946150177258275	484.99718248810564	598.9772670241913	-3.633587786259542	7.145038167938931	0.8702290076335878	-0.11544227886056971	0.42728635682158916	0.1169415292353823	
1.7089453516353254E12	1.5543478260869565	-6.130434782608695	4.293478260869565	3992.6739926739924	128.0	128.0	2.347486895023214	0.1289534722511143	2.4764403672743285	484.99949038022646	598.9720742669194	-4.030534351145038	7.1603053435114505	1.0076335877862594	-0.12143928035982009	0.43628185907046474	0.10794602698650674	
1.7089453516548572E12	1.5978260869565217	-6.163043478260869	4.282608695652174	3982.4175824175823	128.0	128.0	2.341428678206048	0.14748873084649228	2.48891740905254	485.0002115965142	598.9671699961627	-6.152671755725191	6.870229007633587	1.1450381679389312	-0.1199400299850075	0.416791604197901	0.12143928035982009	
1.7089453516743892E12	1.5869565217391304	-6.163043478260869	4.260869565217392	3992.6739926739924	128.0	128.0	2.3442414217283036	0.15282573137590072	2.4970671531042044	484.99646127181785	598.9717136587756	-6.65648854961832	6.8396946564885495	0.6717557251908397	-0.10494752623688156	0.41379310344827586	0.10344827586206896	
1.7089453516939211E12	1.5978260869565217	-6.206521739130435	4.260869565217392	3995.6043956043954	128.0	128.0	2.34618870570525	0.21182122371449763	2.5580099294197476	484.99422550132584	598.9557026571873	-6.519083969465648	6.473282442748092	0.6259541984732824	-0.10644677661169415	0.41829085457271364	0.10794602698650674	
1.708945351713453E12	1.5869565217391304	-6.217391304347826	4.304347826086956	3992.6739926739924	128.0	128.0	2.2664943059080014	0.27442279749188403	2.5409171033998854	484.9976873395071	598.9689009152534	-6.015267175572519	6.702290076335878	0.7480916030534351	-0.11544227886056971	0.40629685157421286	0.11394302848575712	
1.7089453517329849E12	1.5652173913043477	-6.271739130434782	4.315217391304348	3994.139194139194	128.0	128.0	2.2713264550359793	0.2624506071151025	2.533777062151082	484.9971103664769	598.9503656566579	-5.419847328244274	6.961832061068702	0.8244274809160305	-0.09895052473763118	0.42278860569715143	0.12293853073463268	
1.7089453517525168E12	1.5434782608695652	-6.271739130434782	4.358695652173913	3983.8827838827838	128.0	128.0	2.329384366200491	0.16660096247207656	2.4959853286725675	484.99747097462074	598.9585875223383	-3.9389312977099236	7.312977099236641	0.6870229007633587	-0.11394302848575712	0.42278860569715143	0.10794602698650674	
1.7089453517720486E12	1.5869565217391304	-6.260869565217391	4.271739130434782	3994.139194139194	128.0	128.0	2.3537614767267083	0.12275101217639595	2.4765124889031043	484.99566793390136	598.965150590557	-4.030534351145038	6.961832061068702	0.916030534351145	-0.0914542728635682	0.42278860569715143	0.13343328335832083	
1.7089453517915806E12	1.5978260869565217	-6.271739130434782	4.315217391304348	3991.208791208791	128.0	128.0	2.3810234524039573	0.10984124062552914	2.4908646930294864	484.9904030550007	598.9684681854807	-4.244274809160305	6.961832061068702	0.5954198473282443	-0.10344827586206896	0.42278860569715143	0.12593703148425786	
1.7089453518111125E12	1.576086956521739	-6.25	4.326086956521739	3982.4175824175823	128.0	128.0	2.374748870700463	0.11121155157226958	2.4859604222727327	484.98939335219785	598.9710645641165	-4.641221374045801	6.931297709923664	0.5801526717557252	-0.12143928035982009	0.4002998500749625	0.10794602698650674	
1.7089453518306443E12	1.5434782608695652	-6.195652173913043	4.315217391304348	3992.6739926739924	128.0	128.0	2.421123078003297	0.15635969118591442	2.5774827691892113	484.9955236906438	598.9888064847954	-6.122137404580153	6.977099236641221	0.42748091603053434	-0.10494752623688156	0.40929535232383807	0.1169415292353823	
1.7089453518501763E12	1.5434782608695652	-6.25	4.195652173913043	3994.139194139194	128.0	128.0	1.712239588766049	1.036892656909544	2.749132245675593	484.99833643416605	599.0304927862278	-6.534351145038167	7.038167938931298	0.8396946564885496	-0.11544227886056971	0.40929535232383807	0.11094452773613193	
1.7089453518697083E12	1.5326086956521738	-6.228260869565217	4.228260869565217	3991.208791208791	128.0	128.0	1.7866691096626652	0.9544576352188152	2.7411267448814804	484.9880230412511	598.6400262880358	-4.2748091603053435	7.603053435114504	0.7786259541984732	-0.1184407796101949	0.41079460269865065	0.1199400299850075	
1.70894535188924E12	1.5869565217391304	-6.25	4.184782608695652	3994.139194139194	128.0	128.0	2.2571184941671487	0.17215432788781238	2.429272822054961	484.98852789265254	599.0167175551317	-5.068702290076335	5.709923664122138	1.1603053435114503	-0.12143928035982009	0.4077961019490255	0.11544227886056971	
1.708945351908772E12	1.4891304347826086	-6.228260869565217	4.467391304347826	3967.7655677655675	128.0	128.0	2.328014055253751	0.24355474037584557	2.5715687956295965	484.98881637916764	599.0105150950569	-5.694656488549618	8.50381679389313	0.8549618320610687	-0.10644677661169415	0.42278860569715143	0.11544227886056971	
1.708945351928304E12	1.5108695652173914	-6.195652173913043	4.173913043478261	3992.6739926739924	128.0	128.0	2.331043163662334	0.24002078056583187	2.571063944228166	484.98737394659213	599.0348922055832	-4.351145038167939	8.961832061068701	0.3511450381679389	-0.10794602698650674	0.43178410794602695	0.10644677661169415	
1.7089453519478357E12	1.5434782608695652	-6.260869565217391	4.130434782608695	3994.139194139194	128.0	128.0	2.326643744307011	0.24643960552687716	2.573083349833888	484.98924910894027	599.0421764900896	-4.916030534351145	8.854961832061068	0.7480916030534351	-0.1184407796101949	0.41529235382308843	0.11244377811094453	
1.7089453519673677E12	1.5543478260869565	-6.228260869565217	4.206521739130435	3980.9523809523807	128.0	128.0	2.3088297019993904	0.26360455317551557	2.572434255174906	484.98427271655476	599.0564565725871	-4.870229007633587	7.938931297709924	1.114503816793893	-0.12443778110944527	0.40629685157421286	0.11094452773613193	
1.7089453519868994E12	1.576086956521739	-6.206521739130435	4.282608695652174	3994.139194139194	128.0	128.0	2.2944774978730083	0.2836543659751851	2.5781318638481934	484.98513817610007	599.0625869110331	-6.519083969465648	7.129770992366412	0.9770992366412213	-0.12443778110944527	0.416791604197901	0.11394302848575712	
1.7089453520064314E12	1.5543478260869565	-6.293478260869565	4.228260869565217	3994.139194139194	128.0	128.0	2.275509509504975	0.2931744209735898	2.568683930478565	484.98585939238785	599.0855215889837	-7.267175572519084	5.419847328244274	0.8244274809160305	-0.12143928035982009	0.41079460269865065	0.1199400299850075	
1.7089453520259634E12	1.5543478260869565	-6.282608695652174	4.206521739130435	3992.6739926739924	128.0	128.0	2.232813505269707	0.3149551528638783	2.5477686581335854	484.9817484595476	599.1603117180242	-5.893129770992366	5.404580152671755	0.6412213740458015	-0.10794602698650674	0.416791604197901	0.11094452773613193	
1.708945352045495E12	1.5108695652173914	-6.282608695652174	4.25	3994.139194139194	128.0	128.0	2.1904781091783176	0.34647230463889933	2.536950413817217	484.9802339053433	599.1987525461618	-5.709923664122138	6.137404580152672	0.4580152671755725	-0.11094452773613193	0.39280359820089955	0.11544227886056971	
1.708945352065027E12	1.5434782608695652	-6.271739130434782	4.173913043478261	3966.300366300366	128.0	128.0	2.1343674819907528	0.3583002517581284	2.492667733748881	484.9787914727678	599.2689990125893	-5.206106870229007	7.099236641221374	0.7938931297709924	-0.11394302848575712	0.41079460269865065	0.11244377811094453	
1.708945352084559E12	1.5543478260869565	-6.271739130434782	4.163043478260869	3994.139194139194	128.0	128.0	2.142445104413641	0.3634930090299857	2.505938113443627	484.9820369460627	599.2274569544145	-4.763358778625954	7.3893129770992365	1.1603053435114503	-0.10794602698650674	0.4197901049475262	0.11394302848575712	
1.7089453521040908E12	1.5326086956521738	-6.239130434782608	4.1521739130434785	3994.139194139194	128.0	128.0	2.2532960478420314	0.31791213964368614	2.5712081874857176	484.9770605536772	599.0817712642875	-5.206106870229007	6.702290076335878	0.7633587786259541	-0.11244377811094453	0.40929535232383807	0.1169415292353823	
1.7089453521236228E12	1.5326086956521738	-6.228260869565217	4.163043478260869	3980.9523809523807	128.0	128.0	2.3125079050669557	0.2543729846922145	2.56688088975917	484.9725168910643	599.014337541382	-5.267175572519084	6.885496183206107	0.9007633587786259	-0.1184407796101949	0.42278860569715143	0.13043478260869565	
1.7089453521431548E12	1.5326086956521738	-6.271739130434782	4.217391304347826	3967.7655677655675	128.0	128.0	2.3223164465804635	0.23273649605947666	2.55505294263994	484.9776375267074	598.9888064847954	-5.755725190839694	7.83206106870229	0.6106870229007634	-0.1184407796101949	0.41529235382308843	0.1199400299850075	
1.7089453521626865E12	1.5108695652173914	-6.304347826086956	4.25	3992.6739926739924	128.0	128.0	2.34755901665199	0.1922762623162586	2.5398352789682486	484.97713267530594	598.9707039559727	-5.465648854961832	7.419847328244274	0.47328244274809156	-0.1184407796101949	0.4287856071964018	0.11544227886056971	
1.7089453521822185E12	1.576086956521739	-6.326086956521739	4.130434782608695	3992.6739926739924	128.0	128.0	2.3508766115756767	0.1955217356111687	2.5463983471868454	484.9805223918584	598.9752476185856	-4.366412213740458	5.633587786259541	0.183206106870229	-0.1199400299850075	0.416791604197901	0.11394302848575712	
1.7089453522017505E12	1.576086956521739	-6.271739130434782	4.206521739130435	3992.6739926739924	128.0	128.0	2.3663827617624715	0.18816532947603815	2.5545480912385097	484.97944056742676	598.9707760776015	-3.8167938931297707	6.152671755725191	0.366412213740458	-0.1184407796101949	0.41529235382308843	0.10494752623688156	
1.7089453522212822E12	1.576086956521739	-6.239130434782608	4.076086956521739	3988.278388278388	128.0	128.0	2.3598918151726505	0.20482542572324558	2.564717240895896	484.97799813485125	598.9629869416937	-3.5114503816793894	6.3969465648854955	0.8549618320610687	-0.11394302848575712	0.42278860569715143	0.11244377811094453	
1.7089453522408142E12	1.5434782608695652	-6.25	4.217391304347826	3985.3479853479853	128.0	128.0	2.3596033286575473	0.21528306189573554	2.574886390553283	484.971651431519	598.9730118480935	-4.7328244274809155	6.305343511450381	0.7480916030534351	-0.1199400299850075	0.41379310344827586	0.11394302848575712	
1.7089453522603462E12	1.5543478260869565	-6.217391304347826	4.108695652173913	3992.6739926739924	128.0	128.0	2.3618390991495968	0.2156436700396145	2.5774827691892113	484.971651431519	598.97380518601	-4.793893129770992	5.694656488549618	0.33587786259541985	-0.1199400299850075	0.4017991004497751	0.11394302848575712	
1.708945352279878E12	1.5652173913043477	-6.271739130434782	4.119565217391305	3979.487179487179	128.0	128.0	2.3519584360073136	0.214778210494305	2.5667366465016186	484.9720120396629	598.9712809290029	-5.404580152671755	5.908396946564885	0.21374045801526717	-0.12593703148425786	0.4077961019490255	0.11244377811094453	
1.70894535229941E12	1.576086956521739	-6.239130434782608	4.141304347826087	3966.300366300366	128.0	128.0	2.3621997072934757	0.20684483132896814	2.569044538622444	484.96934353939815	598.9632754282088	-4.717557251908397	6.213740458015267	0.0916030534351145	-0.11094452773613193	0.42278860569715143	0.11244377811094453	
1.708945352318942E12	1.5543478260869565	-6.304347826086956	4.141304347826087	3992.6739926739924	128.0	128.0	2.361694855892045	0.1864344103854192	2.5481292662774644	484.96934353939815	598.9642130093829	-4.961832061068702	7.816793893129771	0.22900763358778625	-0.11094452773613193	0.41829085457271364	0.11244377811094453	
1.7089453523384736E12	1.5652173913043477	-6.304347826086956	4.173913043478261	3991.208791208791	128.0	128.0	2.359026355627341	0.1877325997033834	2.5467589553307244	484.9644392686414	598.9527456704076	-4.381679389312977	7.801526717557252	0.2900763358778626	-0.11394302848575712	0.4257871064467766	0.11544227886056971	
1.7089453523580056E12	1.5869565217391304	-6.304347826086956	4.119565217391305	3992.6739926739924	128.0	128.0	2.365517302217162	0.17612101747048126	2.5416383196876433	484.96393441724	598.9563517518463	-4.33587786259542	7.297709923664121	0.13740458015267176	-0.1199400299850075	0.4197901049475262	0.1169415292353823	
1.7089453523775374E12	1.576086956521739	-6.315217391304348	4.119565217391305	3969.230769230769	128.0	128.0	2.365877910361041	0.19256474883136132	2.5584426591924023	484.96638655261836	598.9529620352938	-4.2748091603053435	6.3206106870229	1.3435114503816794	-0.12443778110944527	0.416791604197901	0.11394302848575712	
1.7089453523970693E12	1.576086956521739	-6.271739130434782	4.108695652173913	3992.6739926739924	128.0	128.0	2.3588099907410136	0.22840919833292928	2.587219189073943	484.96963202591326	598.9602463198003	-3.450381679389313	6.3206106870229	0.22900763358778625	-0.11244377811094453	0.40929535232383807	0.12893553223388304	
1.7089453524166013E12	1.5652173913043477	-6.260869565217391	4.163043478260869	3994.139194139194	128.0	128.0	2.3263552577919078	0.2845919471492704	2.610947204941178	484.9689829312543	598.977050659305	-2.8854961832061066	6.564885496183206	0.366412213740458	-0.11544227886056971	0.40929535232383807	0.10344827586206896	
1.708945352436133E12	1.5543478260869565	-6.260869565217391	4.141304347826087	3978.0219780219777	128.0	128.0	2.282361064238675	0.3421450069123515	2.6245060711510266	484.9635738090961	598.9280079517374	-3.4198473282442747	6.687022900763359	0.5343511450381679	-0.13343328335832083	0.42278860569715143	0.10494752623688156	
1.708945352455665E12	1.5869565217391304	-6.304347826086956	4.1521739130434785	3994.139194139194	128.0	128.0	2.2906550515478914	0.28682771764131987	2.5774827691892113	484.96523260655795	598.9389704393113	-3.5877862595419847	6.65648854961832	0.32061068702290074	-0.12593703148425786	0.41079460269865065	0.11544227886056971	
1.708945352475197E12	1.5978260869565217	-6.271739130434782	4.0978260869565215	3992.6739926739924	128.0	128.0	2.3763355465335305	0.2008587361405776	2.577194282674108	484.9630689576947	598.9386098311675	-3.129770992366412	6.076335877862595	0.6106870229007634	-0.10044977511244378	0.41379310344827586	0.12143928035982009	
1.7089453524947288E12	1.608695652173913	-6.271739130434782	4.032608695652174	3992.6739926739924	128.0	128.0	2.3850622636154015	0.16970219250943552	2.554764456124837	484.96710776890615	598.9391868041977	-3.3587786259541983	6.137404580152672	0.732824427480916	-0.1184407796101949	0.42278860569715143	0.1199400299850075	
1.7089453525142607E12	1.6195652173913042	-6.271739130434782	4.0978260869565215	3994.139194139194	128.0	128.0	2.400063562400766	0.1585954616779639	2.5586590240787297	484.9650883633004	598.9479856429083	-3.450381679389313	7.129770992366412	0.7022900763358778	-0.11094452773613193	0.41529235382308843	0.11244377811094453	
1.7089453525337927E12	1.5978260869565217	-6.260869565217391	4.1521739130434785	3969.230769230769	128.0	128.0	2.4116751446336684	0.15030147436874763	2.561976619002416	484.95989560602857	598.9518802108622	-3.969465648854962	7.251908396946565	0.7480916030534351	-0.10794602698650674	0.424287856071964	0.1169415292353823	
1.7089453525533245E12	1.576086956521739	-6.304347826086956	4.065217391304348	3966.300366300366	128.0	128.0	2.2095182191751266	0.36962334747592784	2.5791415666510544	484.95960711951346	599.1257654578407	-4.045801526717557	7.450381679389313	0.8549618320610687	-0.12743628185907047	0.424287856071964	0.10644677661169415	
1.7089453525728564E12	1.5869565217391304	-6.25	4.08695652173913	3994.139194139194	128.0	128.0	1.4758970112677827	1.1602206421161465	2.6361176533839292	484.95628952458975	598.900818097689	-3.3587786259541983	6.931297709923664	0.9770992366412213	-0.11394302848575712	0.41079460269865065	0.11544227886056971	
1.7089453525923884E12	1.5869565217391304	-6.25	4.032608695652174	3976.556776556776	128.0	128.0	2.0993163704057185	0.6596244167833825	2.758940787189101	484.95008706451506	598.6239431648187	-2.5801526717557253	7.541984732824427	0.732824427480916	-0.1199400299850075	0.40929535232383807	0.12143928035982009	
1.7089453526119202E12	1.6630434782608696	-6.293478260869565	4.054347826086956	3994.139194139194	128.0	128.0	2.2991654037434346	0.28271678480109985	2.5818821885445344	484.94979857799996	599.0068368919893	-3.0076335877862594	6.045801526717557	0.9618320610687022	-0.11244377811094453	0.4197901049475262	0.12143928035982009	
1.7089453526314521E12	1.5217391304347825	-6.239130434782608	4.173913043478261	3994.139194139194	128.0	128.0	2.35664634187774	0.26547971552368566	2.6221260574014256	484.9466973479626	599.0008507968009	-3.312977099236641	8.122137404580153	0.8549618320610687	-0.10644677661169415	0.41829085457271364	0.13043478260869565	
1.7089453526509841E12	1.576086956521739	-6.293478260869565	4.054347826086956	3994.139194139194	128.0	128.0	2.356574220248964	0.26346030991796354	2.6200345301669277	484.9462646181899	599.0075581082772	-2.5801526717557253	9.740458015267174	0.47328244274809156	-0.11394302848575712	0.41829085457271364	0.11544227886056971	
1.7089453526705159E12	1.608695652173913	-6.326086956521739	4.141304347826087	3994.139194139194	128.0	128.0	2.3509487332044525	0.28964046116357567	2.640589194368028	484.94467794235686	599.0109478248296	-1.5267175572519083	9.49618320610687	1.450381679389313	-0.11544227886056971	0.40929535232383807	0.1169415292353823	
1.7089453526900479E12	1.6304347826086956	-6.358695652173913	4.1521739130434785	3982.4175824175823	128.0	128.0	2.3422220161225815	0.28949621790602453	2.631718234028606	484.9460482533036	599.0239297180092	-2.8854961832061066	8.534351145038167	1.66412213740458	-0.10794602698650674	0.424287856071964	0.12443778110944527	
1.7089453527095798E12	1.5978260869565217	-6.33695652173913	4.184782608695652	3992.6739926739924	128.0	128.0	2.329095879685388	0.2931022993448136	2.6221981790302014	484.9466252263338	599.0392916249385	-4.183206106870228	7.49618320610687	1.129770992366412	-0.1184407796101949	0.41079460269865065	0.12593703148425786	
1.7089453527291116E12	1.576086956521739	-6.315217391304348	4.1521739130434785	3991.208791208791	128.0	128.0	2.3021945121520178	0.31041149025100356	2.6126060024030213	484.94200944209217	599.0597741675108	-4.122137404580153	6.351145038167939	1.0687022900763359	-0.12893553223388304	0.4257871064467766	0.12593703148425786	
1.7089453527486436E12	1.5543478260869565	-6.293478260869565	4.08695652173913	3975.0915750915747	128.0	128.0	2.2599312376894045	0.3422892501699031	2.6022204878593076	484.9435961179252	599.1324727693168	-3.5572519083969465	6.244274809160305	0.564885496183206	-0.11394302848575712	0.41829085457271364	0.11244377811094453	
1.7089453527681753E12	1.5543478260869565	-6.326086956521739	4.119565217391305	3994.139194139194	128.0	128.0	2.2276207479978503	0.34885231838849995	2.57647306638635	484.9460482533036	599.1827415445736	-2.3664122137404577	6.5038167938931295	0.7786259541984732	-0.10794602698650674	0.43178410794602695	0.1169415292353823	
1.7089453527877073E12	1.5434782608695652	-6.304347826086956	4.08695652173913	3992.6739926739924	128.0	128.0	2.174539229218868	0.37597005080819734	2.5505092800270655	484.9451106721295	599.2285387788462	-2.1221374045801524	7.419847328244274	0.48854961832061067	-0.13193403298350825	0.40629685157421286	0.12893553223388304	
1.7089453528072393E12	1.5869565217391304	-6.271739130434782	4.108695652173913	3992.6739926739924	128.0	128.0	2.1923532715264886	0.3986162422437953	2.590969513770284	484.93991791485763	599.1554074472675	-1.984732824427481	6.946564885496183	0.7786259541984732	-0.12743628185907047	0.41379310344827586	0.09895052473763118	
1.708945352826771E12	1.5652173913043477	-6.260869565217391	4.119565217391305	3992.6739926739924	128.0	128.0	2.3126521483245073	0.3233212618018704	2.6359734101263776	484.93602334690377	599.0075581082772	-2.030534351145038	6.244274809160305	1.1450381679389312	-0.11094452773613193	0.41829085457271364	0.1199400299850075	
1.708945352846303E12	1.5652173913043477	-6.282608695652174	4.0978260869565215	3969.230769230769	128.0	128.0	2.361478491005718	0.262955458516533	2.624433949522251	484.9376821443656	598.94553350753	-2.229007633587786	7.038167938931298	1.4198473282442747	-0.11544227886056971	0.416791604197901	0.12443778110944527	
1.708945352865835E12	1.576086956521739	-6.293478260869565	4.141304347826087	3994.139194139194	128.0	128.0	2.390687750659913	0.22559645481067347	2.6162842054705866	484.9345087926995	598.9469759401055	-2.5343511450381677	7.404580152671755	0.549618320610687	-0.11244377811094453	0.41379310344827586	0.11394302848575712	
1.7089453528853667E12	1.5652173913043477	-6.326086956521739	4.130434782608695	3992.6739926739924	128.0	128.0	2.3885241017966394	0.22848131996170506	2.6170054217583445	484.93284999523763	598.9375280067359	-3.5877862595419847	7.450381679389313	0.8549618320610687	-0.12143928035982009	0.41079460269865065	0.11544227886056971	
1.7089453529048987E12	1.576086956521739	-6.282608695652174	4.119565217391305	3973.626373626373	128.0	128.0	2.396168994446873	0.21448972397920185	2.610658718426075	484.9287390623974	598.9295225059417	-2.778625954198473	6.580152671755725	0.41221374045801523	-0.11094452773613193	0.4257871064467766	0.1199400299850075	
1.7089453529244307E12	1.576086956521739	-6.271739130434782	4.08695652173913	3994.139194139194	128.0	128.0	2.3973950621360616	0.2028781417462997	2.6002732038823613	484.9264311702766	598.9411340881746	-1.8473282442748091	6.259541984732824	1.0076335877862594	-0.1184407796101949	0.42278860569715143	0.10794602698650674	
1.7089453529439624E12	1.576086956521739	-6.228260869565217	4.08695652173913	3994.139194139194	128.0	128.0	2.4042466168697616	0.20900848019224183	2.6132550970620034	484.926286927019	598.9389704393113	-1.83206106870229	5.877862595419847	1.114503816793893	-0.12443778110944527	0.416791604197901	0.11394302848575712	
1.7089453529634944E12	1.5652173913043477	-6.260869565217391	4.173913043478261	3994.139194139194	128.0	128.0	2.40547268455895	0.20186843894343864	2.6073411235023887	484.9266475351629	598.9420716693487	-3.5725190839694654	6.427480916030534	0.8244274809160305	-0.10494752623688156	0.416791604197901	0.11394302848575712	
1.7089453529830264E12	1.5869565217391304	-6.260869565217391	4.0978260869565215	3992.6739926739924	128.0	128.0	2.4094393741416185	0.20230116871609338	2.611740542857712	484.9270081433068	598.9357249660164	-3.16030534351145	5.801526717557252	0.4427480916030534	-0.11094452773613193	0.42278860569715143	0.10494752623688156	
1.708945353002558E12	1.5543478260869565	-6.293478260869565	4.163043478260869	3992.6739926739924	128.0	128.0	2.405833292702829	0.19977691170894074	2.6056102044117697	484.92520510258737	598.9404128718869	-2.717557251908397	6.427480916030534	0.8091603053435115	-0.11394302848575712	0.4077961019490255	0.11244377811094453	
1.70894535302209E12	1.5543478260869565	-6.33695652173913	4.173913043478261	3994.139194139194	128.0	128.0	2.410376955315704	0.19523324909606554	2.6056102044117697	484.92325781861047	598.9350758713574	-3.541984732824427	6.809160305343511	0.5343511450381679	-0.12593703148425786	0.41529235382308843	0.1199400299850075	
1.708945353041622E12	1.5543478260869565	-6.33695652173913	4.195652173913043	3992.6739926739924	128.0	128.0	2.413910915125718	0.19242050557380974	2.6063314206995276	484.9296766435715	598.9319746413202	-2.5343511450381677	7.66412213740458	0.5801526717557252	-0.11244377811094453	0.41379310344827586	0.10644677661169415	
1.7089453530611538E12	1.5869565217391304	-6.315217391304348	4.195652173913043	3973.626373626373	128.0	128.0	2.41593032073144	0.1935023300054466	2.6094326507368866	484.9308305896319	598.9303158438582	-2.595419847328244	7.587786259541985	0.9770992366412213	-0.11394302848575712	0.4332833583208396	0.11544227886056971	
1.7089453530806858E12	1.5652173913043477	-6.315217391304348	4.163043478260869	3994.139194139194	128.0	128.0	2.413117577209184	0.1797992205380461	2.5929167977472303	484.9287390623974	598.919136991398	-1.5114503816793892	7.175572519083969	1.129770992366412	-0.11094452773613193	0.42278860569715143	0.12293853073463268	
1.7089453531002178E12	1.576086956521739	-6.293478260869565	4.141304347826087	3994.139194139194	128.0	128.0	2.421483686147176	0.18253984243152654	2.6040235285787023	484.9270081433068	598.919136991398	-1.6030534351145038	6.687022900763359	1.1450381679389312	-0.12443778110944527	0.4017991004497751	0.12143928035982009	
1.7089453531197495E12	1.5543478260869565	-6.260869565217391	4.195652173913043	3992.6739926739924	128.0	128.0	2.423503091752898	0.17951073402294337	2.6030138257758413	484.9303978598592	598.9140163557549	-0.7175572519083969	6.702290076335878	1.129770992366412	-0.11394302848575712	0.41529235382308843	0.11544227886056971	
1.7089453531392815E12	1.5652173913043477	-6.260869565217391	4.195652173913043	3991.208791208791	128.0	128.0	2.4178054830796105	0.19775750610321818	2.6155629891828287	484.93075846800315	598.9099775445435	-1.5572519083969465	6.549618320610687	1.0534351145038168	-0.1199400299850075	0.42728635682158916	0.13193403298350825	
1.7089453531588132E12	1.5652173913043477	-6.25	4.195652173913043	3992.6739926739924	128.0	128.0	2.4246570378133105	0.2029502633750755	2.627607301188386	484.92946027868516	598.9079581389377	-1.618320610687023	7.236641221374046	0.9007633587786259	-0.11394302848575712	0.41529235382308843	0.12293853073463268	
1.7089453531783452E12	1.5978260869565217	-6.271739130434782	4.141304347826087	3992.6739926739924	128.0	128.0	2.410376955315704	0.2483147678750477	2.658691723190752	484.93184029243474	598.904352057499	-2.427480916030534	6.885496183206107	1.0534351145038168	-0.11394302848575712	0.4047976011994003	0.1199400299850075	
1.7089453531978772E12	1.576086956521739	-6.239130434782608	4.173913043478261	3992.6739926739924	128.0	128.0	2.3294564878292667	0.31834486941634044	2.647801357245607	484.93018149497294	598.9090399633694	-1.7862595419847327	7.114503816793893	0.8854961832061068	-0.12443778110944527	0.416791604197901	0.11394302848575712	
1.708945353217409E12	1.5652173913043477	-6.260869565217391	4.173913043478261	3972.161172161172	128.0	128.0	2.337534110252155	0.3391880201325441	2.6767221303846993	484.9347972792146	598.8822107174648	-2.198473282442748	7.1603053435114505	1.2061068702290076	-0.10644677661169415	0.4257871064467766	0.10494752623688156	
1.708945353236941E12	1.5543478260869565	-6.282608695652174	4.239130434782608	3994.139194139194	128.0	128.0	2.3739555327839295	0.23237588791559816	2.6063314206995276	484.93133544103335	598.8931732050387	-2.4732824427480917	6.931297709923664	0.8244274809160305	-0.10344827586206896	0.42278860569715143	0.1199400299850075	
1.708945353256473E12	1.5543478260869565	-6.293478260869565	4.173913043478261	3994.139194139194	128.0	128.0	2.4300661599714948	0.1948726409521866	2.6249388009236814	484.9339318196693	598.8881968126532	-2.351145038167939	7.007633587786259	0.7175572519083969	-0.1199400299850075	0.40929535232383807	0.10644677661169415	
1.7089453532760046E12	1.5869565217391304	-6.315217391304348	4.141304347826087	3994.139194139194	128.0	128.0	2.4412450124317426	0.16746642201738604	2.6087114344491287	484.9334990898966	598.8991593002271	-1.9389312977099236	7.175572519083969	0.9465648854961831	-0.09895052473763118	0.4002998500749625	0.11544227886056971	
1.7089453532955366E12	1.5434782608695652	-6.271739130434782	4.217391304347826	3994.139194139194	128.0	128.0	2.4577608654213985	0.1536190692924344	2.611379934713833	484.9371772929642	598.8918750157208	-1.6030534351145038	7.358778625954198	0.916030534351145	-0.1199400299850075	0.42728635682158916	0.11394302848575712	
1.7089453533150686E12	1.5543478260869565	-6.293478260869565	4.239130434782608	3970.6959706959706	128.0	128.0	2.49028771999928	0.18441500477969708	2.674702724778977	484.9397736716001	598.9635639147239	-2.4580152671755724	7.49618320610687	1.2519083969465647	-0.11094452773613193	0.42278860569715143	0.11244377811094453	
1.7089453533346003E12	1.5543478260869565	-6.315217391304348	4.1521739130434785	3994.139194139194	128.0	128.0	1.9207432175568604	0.8231241492181001	2.7438673667749605	484.94532703701583	599.0609281135712	-2.4427480916030535	6.8396946564885495	1.0229007633587786	-0.11244377811094453	0.41379310344827586	0.095952023988006	
1.7089453533541323E12	1.5543478260869565	-6.206521739130435	4.271739130434782	3994.139194139194	128.0	128.0	1.58097822439411	1.1276216659094889	2.708599890303599	484.94648098307624	598.6470942076558	-0.8702290076335878	7.465648854961832	0.5038167938931297	-0.10494752623688156	0.40929535232383807	0.10644677661169415	
1.7089453533736643E12	1.5869565217391304	-6.282608695652174	4.0978260869565215	3973.626373626373	128.0	128.0	2.3080363640828567	0.15210451508814282	2.4601408791709996	484.9434518746677	598.9189206265116	-2.3664122137404577	7.083969465648854	0.8702290076335878	-0.11244377811094453	0.4197901049475262	0.12143928035982009	
1.708945353393196E12	1.5434782608695652	-6.25	4.3478260869565215	3995.6043956043954	128.0	128.0	2.3677530727092115	0.3166139503257215	2.684367023034933	484.9435961179252	598.9486347375673	-2.4122137404580153	6.885496183206107	1.0381679389312977	-0.10794602698650674	0.42728635682158916	0.09895052473763118	
1.708945353412728E12	1.5434782608695652	-6.206521739130435	4.119565217391305	3994.139194139194	128.0	128.0	2.3971065756209584	0.28423133900539144	2.68133791462635	484.94496642887196	598.9743100374114	-2.9923664122137406	7.511450381679389	0.7938931297709924	-0.10044977511244378	0.41379310344827586	0.10644677661169415	
1.70894535343226E12	1.5	-6.217391304347826	4.141304347826087	3992.6739926739924	128.0	128.0	2.388307736910312	0.2986556647605494	2.6869634016708615	484.94525491538707	598.9822434165768	-1.618320610687023	8.931297709923664	0.9312977099236641	-0.10644677661169415	0.41079460269865065	0.12293853073463268	
1.7089453534517917E12	1.608695652173913	-6.25	4.206521739130435	3992.6739926739924	128.0	128.0	2.3719361271782073	0.30853632790283303	2.6804724550810404	484.94734644262155	599.0039520268383	-1.618320610687023	7.358778625954198	0.9618320610687022	-0.12143928035982009	0.41079460269865065	0.10494752623688156	
1.7089453534713237E12	1.576086956521739	-6.260869565217391	4.25	3970.6959706959706	128.0	128.0	2.3539778416130357	0.3340673844894626	2.6880452261024983	484.9529719296661	599.0084235678224	-2.6259541984732824	6.5038167938931295	0.9312977099236641	-0.10494752623688156	0.416791604197901	0.10344827586206896	
1.7089453534908557E12	1.576086956521739	-6.326086956521739	4.239130434782608	3992.6739926739924	128.0	128.0	2.335947434419088	0.33825043895845885	2.6741978733775467	484.95513557852934	599.0309255160005	-3.6488549618320607	5.083969465648854	0.9770992366412213	-0.11544227886056971	0.424287856071964	0.1169415292353823	
1.7089453535103875E12	1.5434782608695652	-6.282608695652174	4.206521739130435	3992.6739926739924	128.0	128.0	2.2975066062815914	0.3598869275911958	2.657393533872787	484.9540537540977	599.0704481685697	-2.900763358778626	4.564885496183206	0.8702290076335878	-0.12443778110944527	0.42728635682158916	0.11394302848575712	
1.7089453535299194E12	1.5326086956521738	-6.326086956521739	4.195652173913043	3970.6959706959706	128.0	128.0	2.2544499939024445	0.37265245588451057	2.627102449786955	484.95600103807465	599.1220151331444	-2.595419847328244	4.564885496183206	1.099236641221374	-0.13343328335832083	0.4287856071964018	0.11544227886056971	
1.7089453535494512E12	1.5869565217391304	-6.260869565217391	4.239130434782608	3994.139194139194	128.0	128.0	2.1844198923611513	0.4056120402350474	2.5900319325961987	484.9593907546271	599.1953628296093	-2.091603053435114	5.66412213740458	0.9007633587786259	-0.1184407796101949	0.4257871064467766	0.11544227886056971	
1.7089453535689832E12	1.576086956521739	-6.217391304347826	4.239130434782608	3994.139194139194	128.0	128.0	2.1556433624796107	0.4320085563669869	2.5876519188465976	484.9619150116343	599.1880064234741	-2.091603053435114	5.938931297709924	1.083969465648855	-0.11544227886056971	0.41379310344827586	0.11094452773613193	
1.7089453535885151E12	1.5652173913043477	-6.228260869565217	4.25	3991.208791208791	128.0	128.0	2.2371408029962545	0.4152763384910032	2.6524171414872577	484.9588137815969	599.0483068285355	-2.4427480916030535	6.198473282442748	1.618320610687023	-0.11244377811094453	0.416791604197901	0.11394302848575712	
1.7089453536080469E12	1.576086956521739	-6.217391304347826	4.228260869565217	3992.6739926739924	128.0	128.0	2.3247685819588404	0.3444528990331768	2.669221480992017	484.9593907546271	598.9669536312764	-2.595419847328244	6.030534351145038	1.4809160305343512	-0.11394302848575712	0.41829085457271364	0.11244377811094453	
1.7089453536275789E12	1.5543478260869565	-6.228260869565217	4.217391304347826	3970.6959706959706	128.0	128.0	2.364796085929404	0.30615631415323197	2.670952400082636	484.95982348439975	598.9215170051476	-2.6564885496183206	6.290076335877862	1.0381679389312977	-0.11094452773613193	0.41829085457271364	0.1199400299850075	
1.7089453536471108E12	1.576086956521739	-6.282608695652174	4.260869565217392	3992.6739926739924	128.0	128.0	2.3857113582743836	0.2645421343496004	2.650253492623984	484.9603283358012	598.8993756651134	-3.145038167938931	6.381679389312977	0.6106870229007634	-0.09745127436281859	0.416791604197901	0.11094452773613193	
1.7089453536666426E12	1.6195652173913042	-6.260869565217391	4.163043478260869	3992.6739926739924	128.0	128.0	2.395592021416667	0.2667057832128745	2.6622978046295414	484.9630689576947	598.9058666117032	-3.114503816793893	6.106870229007633	0.6717557251908397	-0.11094452773613193	0.4002998500749625	0.11544227886056971	
1.7089453536861746E12	1.5869565217391304	-6.228260869565217	4.271739130434782	3970.6959706959706	128.0	128.0	2.4001356840295416	0.260719688024484	2.6608553720540256	484.95895802485444	598.9026932600372	-2.213740458015267	6.519083969465648	1.0229007633587786	-0.11094452773613193	0.41529235382308843	0.11244377811094453	
1.7089453537057065E12	1.576086956521739	-6.228260869565217	4.130434782608695	3966.300366300366	128.0	128.0	2.396890210734631	0.2589887689338646	2.6558789796684956	484.959102268112	598.9218776132915	-2.1221374045801524	5.9541984732824424	1.0381679389312977	-0.12143928035982009	0.41529235382308843	0.10794602698650674	
1.7089453537252383E12	1.5543478260869565	-6.239130434782608	4.33695652173913	3994.139194139194	128.0	128.0	2.391120480432568	0.2760094733249514	2.6671299537575193	484.9579483220516	598.9231036809807	-2.3053435114503817	6.687022900763359	0.8244274809160305	-0.12443778110944527	0.424287856071964	0.11094452773613193	
1.7089453537447703E12	1.5652173913043477	-6.25	4.206521739130435	3994.139194139194	128.0	128.0	2.396890210734631	0.27572098680984825	2.6726111975444793	484.9632132009522	598.9132230178384	-3.49618320610687	6.213740458015267	0.7938931297709924	-0.11244377811094453	0.416791604197901	0.12143928035982009	
1.7089453537643022E12	1.5543478260869565	-6.271739130434782	4.195652173913043	3994.139194139194	128.0	128.0	2.395519899787891	0.2731246081739198	2.668644507961811	484.96198713326305	598.9121411934068	-2.381679389312977	6.229007633587786	0.916030534351145	-0.12893553223388304	0.4047976011994003	0.11244377811094453	
1.708945353783834E12	1.5652173913043477	-6.282608695652174	4.228260869565217	3994.139194139194	128.0	128.0	2.4015781166050574	0.2661288101826682	2.6677069267877256	484.9630689576947	598.9065878279911	-2.198473282442748	6.717557251908397	1.0076335877862594	-0.11544227886056971	0.4197901049475262	0.13193403298350825	
1.708945353803366E12	1.5652173913043477	-6.271739130434782	4.282608695652174	3994.139194139194	128.0	128.0	2.4038860087258827	0.2635324315467398	2.6674184402726224	484.9675404986788	598.9112036122327	-2.4427480916030535	7.679389312977099	1.0229007633587786	-0.11094452773613193	0.4077961019490255	0.11544227886056971	
1.708945353822898E12	1.5434782608695652	-6.228260869565217	4.282608695652174	3994.139194139194	128.0	128.0	2.39451019698503	0.25841179590365826	2.6529219928886882	484.9648719984141	598.90723692265	-1.83206106870229	8.213740458015266	1.1450381679389312	-0.11394302848575712	0.41079460269865065	0.11544227886056971	
1.7089453538424297E12	1.5434782608695652	-6.239130434782608	4.260869565217392	3970.6959706959706	128.0	128.0	2.406554508990587	0.24312201060319083	2.6496765195937777	484.96948778265573	598.8970677729926	-1.9389312977099236	7.893129770992366	1.1603053435114503	-0.10794602698650674	0.42728635682158916	0.13193403298350825	
1.7089453538619617E12	1.576086956521739	-6.25	4.217391304347826	3994.139194139194	128.0	128.0	2.3978277919087163	0.25365176840445613	2.6514795603131724	484.96797322845146	598.897572624394	-2.33587786259542	7.465648854961832	1.083969465648855	-0.11544227886056971	0.3988005997001499	0.12143928035982009	
1.7089453538814937E12	1.5869565217391304	-6.228260869565217	4.25	3992.6739926739924	128.0	128.0	2.401433873347506	0.2544451063209898	2.6558789796684956	484.96580957958815	598.8967792864776	-1.7404580152671756	7.007633587786259	1.4351145038167938	-0.11244377811094453	0.43928035982008995	0.1169415292353823	
1.7089453539010254E12	1.5217391304347825	-6.239130434782608	4.271739130434782	3992.6739926739924	128.0	128.0	2.4042466168697616	0.24665597041320453	2.650902587282966	484.97273325595063	598.8939665429552	-1.450381679389313	7.114503816793893	0.9312977099236641	-0.12893553223388304	0.42278860569715143	0.13043478260869565	
1.7089453539205574E12	1.5543478260869565	-6.25	4.293478260869565	3992.6739926739924	128.0	128.0	2.400712657059748	0.2398765373082803	2.640589194368028	484.972300526178	598.9007459760602	-1.648854961832061	7.145038167938931	1.0534351145038168	-0.1199400299850075	0.4197901049475262	0.12893553223388304	
1.708945353940089E12	1.5326086956521738	-6.25	4.293478260869565	3973.626373626373	128.0	128.0	2.402443576150367	0.26288333688775767	2.6653269130381245	484.9735265938672	598.8956974620459	-2.213740458015267	7.648854961832061	1.4045801526717556	-0.1184407796101949	0.42278860569715143	0.10194902548725637	
1.708945353959621E12	1.5543478260869565	-6.228260869565217	4.282608695652174	3992.6739926739924	128.0	128.0	2.39725081887851	0.2955544347231909	2.692805253601701	484.9759787292455	598.8997362732573	-2.1374045801526718	7.099236641221374	1.0229007633587786	-0.13193403298350825	0.40929535232383807	0.10344827586206896	
1.708945353979153E12	1.576086956521739	-6.228260869565217	4.271739130434782	3992.6739926739924	128.0	128.0	2.3478475031670936	0.33651951986783946	2.684367023034933	484.9735265938672	598.9042078142414	-2.183206106870229	6.625954198473282	1.1603053435114503	-0.12143928035982009	0.42278860569715143	0.12293853073463268	
1.7089453539986848E12	1.5652173913043477	-6.184782608695652	4.293478260869565	3970.6959706959706	128.0	128.0	2.327364960594769	0.3670269688399994	2.6943919294347682	484.97778176996496	598.8669209321644	-2.3206106870229006	6.625954198473282	0.9923664122137404	-0.13193403298350825	0.40629685157421286	0.12143928035982009	
1.7089453540182168E12	1.5434782608695652	-6.195652173913043	4.293478260869565	3995.6043956043954	128.0	128.0	2.3305383122609036	0.3080314765014025	2.638569788762306	484.9790799592829	598.8698779189441	-3.0839694656488548	6.671755725190839	0.9770992366412213	-0.11544227886056971	0.41379310344827586	0.12143928035982009	
1.7089453540377488E12	1.5326086956521738	-6.163043478260869	4.184782608695652	4002.9304029304026	128.0	128.0	2.389317439713173	0.25004568696566665	2.6393631266788398	484.9741035668974	598.8816337444346	-3.8931297709923665	5.770992366412213	0.7786259541984732	-0.1184407796101949	0.41829085457271364	0.10794602698650674	
1.7089453540572805E12	1.5652173913043477	-6.163043478260869	4.184782608695652	3992.6739926739924	128.0	128.0	2.411747266262444	0.2190333865920766	2.630780652854521	484.9743199317837	598.8755755276175	-4.595419847328244	6.198473282442748	0.6106870229007634	-0.11244377811094453	0.4197901049475262	0.1169415292353823	
1.7089453540768125E12	1.5652173913043477	-6.173913043478261	4.195652173913043	3994.139194139194	128.0	128.0	2.40547268455895	0.23006799579477288	2.635540680353723	484.9735265938672	598.8712482298909	-5.358778625954198	6.366412213740458	0.549618320610687	-0.11094452773613193	0.41079460269865065	0.10194902548725637	
1.7089453540963445E12	1.576086956521739	-6.206521739130435	4.217391304347826	3976.556776556776	128.0	128.0	2.465477879700408	0.23107769859763394	2.696555578298042	484.9748247831851	598.9057944900745	-6.595419847328244	6.3206106870229	0.564885496183206	-0.1184407796101949	0.42278860569715143	0.1199400299850075	
1.7089453541158762E12	1.576086956521739	-6.217391304347826	4.184782608695652	3966.300366300366	128.0	128.0	2.1386226580885244	0.5600965690727913	2.6987192271613156	484.9772769185635	599.0587644647079	-6.137404580152672	6.045801526717557	0.6412213740458015	-0.10494752623688156	0.41379310344827586	0.10644677661169415	
1.7089453541354082E12	1.5217391304347825	-6.239130434782608	4.260869565217392	3994.139194139194	128.0	128.0	1.7673405131507534	1.1081488261400252	2.8754893392907785	484.9803781486009	598.5830502013029	-5.541984732824427	6.442748091603053	0.7175572519083969	-0.1199400299850075	0.416791604197901	0.11094452773613193	
1.7089453541549402E12	1.608695652173913	-6.260869565217391	4.163043478260869	3970.6959706959706	128.0	128.0	2.306521809878565	0.22985163090844551	2.5363734407870107	484.9770605536772	598.8283358607692	-4.854961832061068	6.534351145038167	0.5038167938931297	-0.11094452773613193	0.43628185907046474	0.10794602698650674	
1.708945354174472E12	1.5217391304347825	-6.282608695652174	4.413043478260869	3995.6043956043954	128.0	128.0	2.3626324370661305	0.34192864202602413	2.7045610790921546	484.97958481068434	598.9362298174178	-5.938931297709924	5.770992366412213	0.7022900763358778	-0.1199400299850075	0.4017991004497751	0.11394302848575712	
1.708945354194004E12	1.4891304347826086	-6.271739130434782	4.195652173913043	3994.139194139194	128.0	128.0	2.3763355465335305	0.3401256013066294	2.71646114784016	484.97453629667	598.9249067217	-5.633587786259541	7.541984732824427	0.0916030534351145	-0.11094452773613193	0.4257871064467766	0.10794602698650674	
1.708945354213536E12	1.5217391304347825	-6.260869565217391	4.141304347826087	3992.6739926739924	128.0	128.0	2.374171897670257	0.3606802655077299	2.7348521631779867	484.9775654050786	598.9592366169974	-4.900763358778626	8.48854961832061	0.549618320610687	-0.1199400299850075	0.424287856071964	0.12143928035982009	
1.7089453542330676E12	1.576086956521739	-6.260869565217391	4.173913043478261	3994.139194139194	128.0	128.0	2.364435477785525	0.36955122584715205	2.7339867036326773	484.9782144997376	598.9637081579815	-3.83206106870229	7.3893129770992365	1.2519083969465647	-0.12593703148425786	0.4077961019490255	0.10794602698650674	
1.7089453542525996E12	1.5543478260869565	-6.228260869565217	4.25	3978.0219780219777	128.0	128.0	2.347991746424645	0.38512949766272264	2.733121244087368	484.9725168910643	598.9754639834719	-5.374045801526718	6.946564885496183	0.8091603053435115	-0.10494752623688156	0.416791604197901	0.11394302848575712	
1.7089453542721316E12	1.576086956521739	-6.260869565217391	4.195652173913043	3995.6043956043954	128.0	128.0	2.3202249193459656	0.4039532427732042	2.72417816211917	484.9735265938672	599.0064041622168	-6.381679389312977	5.32824427480916	0.7938931297709924	-0.1184407796101949	0.41829085457271364	0.11544227886056971	
1.7089453542916633E12	1.5434782608695652	-6.260869565217391	4.1521739130434785	3992.6739926739924	128.0	128.0	2.2933956734413714	0.4175121089830527	2.710907782424424	484.9734544722384	599.0247951775546	-6.6106870229007635	4.580152671755725	0.4427480916030534	-0.1199400299850075	0.4197901049475262	0.11394302848575712	
1.7089453543111953E12	1.5326086956521738	-6.260869565217391	4.173913043478261	3969.230769230769	128.0	128.0	2.2406026411774924	0.436768583866189	2.6773712250436814	484.9731659857233	599.1047059422382	-5.419847328244274	5.007633587786259	0.32061068702290074	-0.11094452773613193	0.4287856071964018	0.10494752623688156	
1.708945354330727E12	1.5543478260869565	-6.293478260869565	4.130434782608695	3994.139194139194	128.0	128.0	2.204613948418373	0.455448085719119	2.660062034137492	484.9766999455333	599.1467528518144	-5.221374045801526	5.908396946564885	0.5190839694656488	-0.11394302848575712	0.42278860569715143	0.10794602698650674	
1.708945354350259E12	1.576086956521739	-6.271739130434782	4.206521739130435	3994.139194139194	128.0	128.0	2.164658566076585	0.4745603173447033	2.639218883421288	484.9778538915937	599.158148069161	-4.3206106870229	6.641221374045801	0.7633587786259541	-0.11094452773613193	0.41529235382308843	0.11544227886056971	
1.708945354369791E12	1.576086956521739	-6.260869565217391	4.195652173913043	3992.6739926739924	128.0	128.0	2.2305777347776576	0.4664826949218148	2.6970604296994725	484.97331022898084	599.0596299242533	-4.549618320610687	6.641221374045801	0.8091603053435115	-0.12443778110944527	0.424287856071964	0.11394302848575712	
1.7089453543893228E12	1.5326086956521738	-6.282608695652174	4.119565217391305	3992.6739926739924	128.0	128.0	2.3063054449922378	0.4232097176563405	2.7295151626485783	484.9740314452686	598.9507262648018	-5.557251908396946	6.625954198473282	0.8702290076335878	-0.1199400299850075	0.40929535232383807	0.10344827586206896	
1.7089453544088547E12	1.5217391304347825	-6.271739130434782	4.1521739130434785	3979.487179487179	128.0	128.0	2.3712149108904494	0.3629881576285552	2.7342030685190046	484.9728053775794	598.8925241103798	-4.488549618320611	7.0534351145038165	0.5038167938931297	-0.1184407796101949	0.42278860569715143	0.12293853073463268	
1.7089453544283867E12	1.5434782608695652	-6.271739130434782	4.217391304347826	3992.6739926739924	128.0	128.0	2.3880913720239847	0.3336346547168083	2.721726026740793	484.97294962083697	598.8794700955714	-4.290076335877862	7.32824427480916	0.8549618320610687	-0.11244377811094453	0.416791604197901	0.11394302848575712	
1.7089453544479185E12	1.5543478260869565	-6.282608695652174	4.130434782608695	3994.139194139194	128.0	128.0	2.3940053455835995	0.327215829755763	2.7212211753393625	484.9720120396629	598.8828598121238	-4.0	6.595419847328244	0.6870229007633587	-0.09895052473763118	0.41829085457271364	0.10494752623688156	
1.7089453544674504E12	1.576086956521739	-6.271739130434782	4.228260869565217	3969.230769230769	128.0	128.0	2.3943659537274784	0.32541278903636783	2.7197787427638462	484.9697041475421	598.8918028940919	-4.213740458015267	6.33587786259542	0.9007633587786259	-0.10644677661169415	0.4332833583208396	0.11244377811094453	
1.7089453544869824E12	1.5652173913043477	-6.271739130434782	4.076086956521739	3995.6043956043954	128.0	128.0	2.3922023048642047	0.33608679009518516	2.72828909495939	484.96847807985284	598.8749985545873	-3.480916030534351	6.625954198473282	0.7175572519083969	-0.11394302848575712	0.42278860569715143	0.10494752623688156	
1.7089453545065142E12	1.5543478260869565	-6.282608695652174	4.195652173913043	3992.6739926739924	128.0	128.0	2.395808386302994	0.33038918142189777	2.726197567724892	484.96739625542125	598.8820664742072	-3.5877862595419847	6.381679389312977	0.8854961832061068	-0.1184407796101949	0.41529235382308843	0.11544227886056971	
1.7089453545260461E12	1.5543478260869565	-6.282608695652174	4.141304347826087	3991.208791208791	128.0	128.0	2.3967459674770795	0.3254127890363683	2.7221587565134477	484.96934353939815	598.8778112981095	-5.0534351145038165	6.717557251908397	0.6106870229007634	-0.10794602698650674	0.41379310344827586	0.12443778110944527	
1.7089453545455781E12	1.576086956521739	-6.293478260869565	4.119565217391305	3992.6739926739924	128.0	128.0	2.393788980697272	0.3263503702104531	2.720139350907725	484.96696352564857	598.8880525693957	-4.625954198473282	5.938931297709924	0.564885496183206	-0.10644677661169415	0.4257871064467766	0.11544227886056971	
1.7089453545651099E12	1.5326086956521738	-6.326086956521739	4.173913043478261	3982.4175824175823	128.0	128.0	2.4053284413013984	0.3216624643400272	2.7269909056414257	484.9710744584888	598.8831482986388	-4.152671755725191	6.152671755725191	0.7633587786259541	-0.1184407796101949	0.41529235382308843	0.11544227886056971	
1.7089453545846418E12	1.5543478260869565	-6.315217391304348	4.163043478260869	3966.300366300366	128.0	128.0	2.3899665343721552	0.3122145309703983	2.7021810653425535	484.97078597197367	598.8881246910245	-4.183206106870228	6.8396946564885495	0.8244274809160305	-0.10344827586206896	0.41829085457271364	0.10494752623688156	
1.7089453546041738E12	1.5543478260869565	-6.271739130434782	4.1521739130434785	3994.139194139194	128.0	128.0	2.40136175171873	0.31394545006101726	2.7153072017797473	484.97006475568594	598.8787488792835	-3.145038167938931	7.32824427480916	1.2366412213740459	-0.11544227886056971	0.40929535232383807	0.09895052473763118	
1.7089453546237056E12	1.5543478260869565	-6.271739130434782	4.141304347826087	3970.6959706959706	128.0	128.0	2.4012175084611784	0.31048361187977935	2.711701120340958	484.96919929614063	598.8726185408376	-2.9770992366412212	7.633587786259541	0.6564885496183206	-0.11244377811094453	0.4197901049475262	0.12143928035982009	
1.7089453546432375E12	1.5543478260869565	-6.260869565217391	4.108695652173913	3995.6043956043954	128.0	128.0	2.4108818067171347	0.2986556647605494	2.709537471477684	484.9670356472773	598.8610790802335	-3.312977099236641	6.946564885496183	0.9770992366412213	-0.1184407796101949	0.41079460269865065	0.1199400299850075	
1.7089453546627695E12	1.5543478260869565	-6.271739130434782	4.108695652173913	3994.139194139194	128.0	128.0	2.4080690631948785	0.3086084495316088	2.7166775127264873	484.9655932147018	598.8719694461787	-3.236641221374046	7.0534351145038165	0.8091603053435115	-0.11544227886056971	0.424287856071964	0.12143928035982009	
1.7089453546823013E12	1.5543478260869565	-6.239130434782608	4.141304347826087	3992.6739926739924	128.0	128.0	2.4184545777385926	0.29043379908010936	2.708888376818702	484.963285322581	598.8704548919743	-3.282442748091603	6.641221374045801	0.564885496183206	-0.11394302848575712	0.41829085457271364	0.10794602698650674	
1.7089453547018333E12	1.5652173913043477	-6.239130434782608	4.163043478260869	3969.230769230769	128.0	128.0	2.417372753306956	0.2878374204441809	2.7052101737511367	484.95758771390774	598.8395868348583	-3.465648854961832	6.870229007633587	0.47328244274809156	-0.12593703148425786	0.4257871064467766	0.13343328335832083	
1.708945354721365E12	1.5652173913043477	-6.326086956521739	4.108695652173913	3992.6739926739924	128.0	128.0	2.400352048915869	0.30694965206976565	2.7073017009856346	484.9594628762559	598.8369904562223	-4.183206106870228	7.114503816793893	0.6412213740458015	-0.1184407796101949	0.4077961019490255	0.12293853073463268	
1.708945354740897E12	1.576086956521739	-6.293478260869565	4.08695652173913	3992.6739926739924	128.0	128.0	2.410088468800601	0.34012560130662894	2.75021407010723	484.959751362771	598.8232152251262	-3.7557251908396947	7.068702290076335	0.7480916030534351	-0.136431784107946	0.41079460269865065	0.11244377811094453	
1.708945354760429E12	1.5869565217391304	-6.271739130434782	4.108695652173913	3992.6739926739924	128.0	128.0	2.3440250568419763	0.40077989110706946	2.7448049479490457	484.96083318720264	598.8301389014887	-3.4351145038167936	6.870229007633587	0.47328244274809156	-0.1199400299850075	0.43178410794602695	0.11394302848575712	
1.7089453547799607E12	1.5652173913043477	-6.282608695652174	4.119565217391305	3967.7655677655675	128.0	128.0	2.3311874069198857	0.41974787947510217	2.750935286394988	484.962636227922	598.8099448454315	-3.66412213740458	6.65648854961832	0.8549618320610687	-0.10044977511244378	0.4197901049475262	0.1169415292353823	
1.7089453547994927E12	1.5543478260869565	-6.271739130434782	4.08695652173913	3994.139194139194	128.0	128.0	2.3629209235812336	0.333057681686602	2.6959786052678356	484.9633574442098	598.8398753213734	-3.66412213740458	6.900763358778626	0.47328244274809156	-0.12143928035982009	0.41529235382308843	0.11544227886056971	
1.7089453548190247E12	1.576086956521739	-6.271739130434782	4.054347826086956	3992.6739926739924	128.0	128.0	2.424440672926983	0.2885586367319388	2.712999309658922	484.9624919846645	598.8427601865244	-4.122137404580153	6.977099236641221	0.7786259541984732	-0.1199400299850075	0.42728635682158916	0.1169415292353823	
1.7089453548385564E12	1.5543478260869565	-6.282608695652174	4.076086956521739	3991.208791208791	128.0	128.0	2.435403160500903	0.2554548091238513	2.6908579696247545	484.95895802485444	598.8395868348583	-3.114503816793893	6.900763358778626	0.47328244274809156	-0.12743628185907047	0.4197901049475262	0.09895052473763118	
1.7089453548580884E12	1.5543478260869565	-6.260869565217391	4.130434782608695	3992.6739926739924	128.0	128.0	2.4475195941352363	0.24485292969380978	2.692372523829046	484.95816468693795	598.8610790802335	-3.1908396946564883	6.824427480916031	0.9312977099236641	-0.12143928035982009	0.41079460269865065	0.11244377811094453	
1.7089453548776204E12	1.5869565217391304	-6.304347826086956	4.1521739130434785	3994.139194139194	128.0	128.0	2.4726179209492116	0.26973489162145725	2.742352812570669	484.9525391998934	598.8636754588695	-3.099236641221374	6.6106870229007635	0.7938931297709924	-0.11544227886056971	0.424287856071964	0.1169415292353823	
1.708945354897152E12	1.5543478260869565	-6.293478260869565	4.076086956521739	3992.6739926739924	128.0	128.0	1.9833447913342468	0.860699517810287	2.8440443091445338	484.95744347065016	599.0225594070625	-3.8625954198473282	6.519083969465648	0.5801526717557252	-0.11394302848575712	0.4257871064467766	0.12293853073463268	
1.708945354916684E12	1.5543478260869565	-6.260869565217391	4.108695652173913	3992.6739926739924	128.0	128.0	1.5889116035594468	1.2542672460397775	2.8431788495992243	484.9579483220516	598.614495231449	-2.9618320610687023	6.351145038167939	0.564885496183206	-0.11094452773613193	0.41529235382308843	0.11244377811094453	
1.708945354936216E12	1.5869565217391304	-6.271739130434782	4.021739130434782	3969.230769230769	128.0	128.0	2.3013290526067083	0.24600687575422242	2.5473359283609307	484.9552798217869	598.8782440278821	-3.0076335877862594	7.267175572519084	0.7175572519083969	-0.12143928035982009	0.41079460269865065	0.13343328335832083	
1.7089453549557478E12	1.5978260869565217	-6.304347826086956	4.184782608695652	3994.139194139194	128.0	128.0	2.383475587782334	0.3806579566786237	2.764133544460958	484.95102464568913	598.9199303293145	-4.030534351145038	5.587786259541985	0.7175572519083969	-0.11394302848575712	0.41529235382308843	0.12593703148425786	
1.7089453549752798E12	1.5108695652173914	-6.260869565217391	4.0978260869565215	3992.6739926739924	128.0	128.0	2.4064102657330353	0.3636372522875373	2.7700475180205726	484.95095252406037	598.9105545175737	-4.198473282442748	8.244274809160306	1.0687022900763359	-0.12593703148425786	0.43628185907046474	0.11244377811094453	
1.7089453549948118E12	1.5543478260869565	-6.25	4.010869565217392	3992.6739926739924	128.0	128.0	2.3953756565303395	0.36745969861265415	2.7628353551429936	484.95116888894665	598.9211563970038	-2.854961832061069	8.977099236641221	0.7022900763358778	-0.11244377811094453	0.42728635682158916	0.11394302848575712	
1.7089453550143435E12	1.5978260869565217	-6.260869565217391	4.0978260869565215	3994.139194139194	128.0	128.0	2.3892453180843973	0.3834707002008795	2.772716018285277	484.95390951084016	598.9247624784425	-1.8625954198473282	7.480916030534351	1.1450381679389312	-0.10794602698650674	0.40929535232383807	0.12143928035982009	
1.7089453550338755E12	1.5652173913043477	-6.25	4.184782608695652	3986.8131868131863	128.0	128.0	2.383475587782334	0.38152341622393315	2.7649990040062673	484.9461203749324	598.9546929543844	-2.7938931297709924	6.824427480916031	1.1755725190839694	-0.12443778110944527	0.41379310344827586	0.1169415292353823	
1.7089453550534075E12	1.5652173913043477	-6.33695652173913	4.141304347826087	3992.6739926739924	128.0	128.0	2.3615506126344936	0.39515440406255786	2.7567050166970515	484.9531161729236	598.9665930231325	-4.931297709923664	6.5038167938931295	0.8244274809160305	-0.12743628185907047	0.424287856071964	0.11094452773613193	
1.7089453550729392E12	1.5652173913043477	-6.304347826086956	4.108695652173913	3994.139194139194	128.0	128.0	2.325561919875374	0.4140502708018148	2.739612190677189	484.9485725103107	599.0338103811515	-5.572519083969466	5.221374045801526	0.5190839694656488	-0.13193403298350825	0.4197901049475262	0.10644677661169415	
1.7089453550924712E12	1.5543478260869565	-6.326086956521739	4.108695652173913	3970.6959706959706	128.0	128.0	2.289356862229927	0.4353261512906732	2.7246830135206004	484.94705795610645	599.0861706836428	-3.709923664122137	5.206106870229007	0.7938931297709924	-0.1184407796101949	0.42278860569715143	0.10794602698650674	
1.708945355112003E12	1.576086956521739	-6.326086956521739	4.0978260869565215	3995.6043956043954	128.0	128.0	2.2268274100813166	0.47124272242101695	2.6980701325023335	484.94734644262155	599.153965014692	-3.3893129770992365	5.709923664122138	0.9007633587786259	-0.1199400299850075	0.42728635682158916	0.12143928035982009	
1.708945355131535E12	1.5869565217391304	-6.271739130434782	4.0978260869565215	3994.139194139194	128.0	128.0	2.210816408493091	0.48206096673738585	2.6928773752304767	484.94821190216686	599.1479067978748	-2.8244274809160306	6.3969465648854955	0.8091603053435115	-0.1184407796101949	0.41529235382308843	0.10794602698650674	
1.708945355151067E12	1.576086956521739	-6.25	4.0978260869565215	3991.208791208791	128.0	128.0	2.2415402223515777	0.4860276563200543	2.727567878671632	484.9435961179252	599.0560959644432	-3.2213740458015265	6.045801526717557	0.9007633587786259	-0.11394302848575712	0.41529235382308843	0.11244377811094453	
1.7089453551705986E12	1.5543478260869565	-6.25	4.065217391304348	3992.6739926739924	128.0	128.0	2.348063868053421	0.4186660550434653	2.7667299230968863	484.9453991586446	598.9192091130268	-3.3435114503816794	6.290076335877862	0.9312977099236641	-0.1199400299850075	0.416791604197901	0.11094452773613193	
1.7089453551901306E12	1.5652173913043477	-6.271739130434782	4.076086956521739	3992.6739926739924	128.0	128.0	2.404823589899968	0.3649354416055015	2.7697590315054694	484.9469137128489	598.8740609734132	-3.236641221374046	6.137404580152672	0.9007633587786259	-0.12593703148425786	0.41529235382308843	0.11544227886056971	
1.7089453552096626E12	1.5869565217391304	-6.271739130434782	4.119565217391305	3992.6739926739924	128.0	128.0	2.425810983873723	0.3308940328233283	2.7567050166970515	484.9428749016375	598.8661275942478	-3.114503816793893	6.916030534351145	0.47328244274809156	-0.10494752623688156	0.41379310344827586	0.10644677661169415	
1.7089453552291943E12	1.576086956521739	-6.304347826086956	4.065217391304348	3992.6739926739924	128.0	128.0	2.431292227660683	0.3200036668781836	2.751295894538867	484.9389082120548	598.862521512809	-3.0839694656488548	7.099236641221374	0.48854961832061067	-0.11544227886056971	0.40929535232383807	0.11394302848575712	
1.7089453552487263E12	1.5869565217391304	-6.293478260869565	4.1521739130434785	3967.7655677655675	128.0	128.0	2.436196498417437	0.31473878797755095	2.750935286394988	484.943668239554	598.8699500405729	-3.3740458015267176	6.351145038167939	0.5954198473282443	-0.10644677661169415	0.41079460269865065	0.12293853073463268	
1.7089453552682583E12	1.576086956521739	-6.282608695652174	4.043478260869565	3994.139194139194	128.0	128.0	2.4349704307282485	0.3194266938479777	2.754397124576226	484.9374657794793	598.8740609734132	-2.519083969465649	6.2748091603053435	0.8396946564885496	-0.1199400299850075	0.41379310344827586	0.10644677661169415	
1.70894535528779E12	1.5652173913043477	-6.304347826086956	4.130434782608695	3992.6739926739924	128.0	128.0	2.441172890802967	0.3256291539226952	2.766802044725662	484.93825911739583	598.8718252029211	-2.198473282442748	6.137404580152672	0.9312977099236641	-0.11394302848575712	0.4077961019490255	0.10494752623688156	
1.708945355307322E12	1.5543478260869565	-6.282608695652174	4.141304347826087	3992.6739926739924	128.0	128.0	2.440307431257657	0.3337067763455841	2.774014207603241	484.9332106033815	598.8599972558019	-2.5343511450381677	6.931297709923664	0.7786259541984732	-0.10494752623688156	0.4197901049475262	0.12143928035982009	
1.708945355326854E12	1.5869565217391304	-6.293478260869565	4.08695652173913	3994.139194139194	128.0	128.0	2.438288025651935	0.31589273403796403	2.754180759689899	484.9373215362217	598.8692288242852	-3.0076335877862594	6.8396946564885495	0.916030534351145	-0.11394302848575712	0.41529235382308843	0.13793103448275862	
1.7089453553463857E12	1.576086956521739	-6.293478260869565	4.1521739130434785	3988.278388278388	128.0	128.0	2.4407401610303117	0.31149331468264085	2.7522334757129525	484.93284999523763	598.8646851616722	-2.916030534351145	7.038167938931298	0.5801526717557252	-0.1199400299850075	0.42728635682158916	0.12443778110944527	
1.7089453553659177E12	1.5652173913043477	-6.326086956521739	4.119565217391305	3991.208791208791	128.0	128.0	2.4422547152346037	0.30666116555466205	2.7489158807892657	484.93313848175274	598.8526408496667	-2.4580152671755724	7.480916030534351	0.916030534351145	-0.1184407796101949	0.41079460269865065	0.1199400299850075	
1.7089453553854497E12	1.5543478260869565	-6.315217391304348	4.130434782608695	3992.6739926739924	128.0	128.0	2.438937120310917	0.30983451722079725	2.748771637531714	484.93256150872253	598.8590596746278	-2.351145038167939	7.938931297709924	0.8396946564885496	-0.12743628185907047	0.43178410794602695	0.12143928035982009	
1.7089453554049814E12	1.5543478260869565	-6.304347826086956	4.163043478260869	3969.230769230769	128.0	128.0	2.4433365396662405	0.3069496520697652	2.7502861917360057	484.9345087926995	598.8593481611429	-2.2442748091603053	7.7251908396946565	1.099236641221374	-0.10644677661169415	0.41829085457271364	0.11544227886056971	
1.7089453554245134E12	1.5543478260869565	-6.271739130434782	4.130434782608695	3995.6043956043954	128.0	128.0	2.4447068506129805	0.29670838078360307	2.7414152313965836	484.9378985092519	598.8601414990594	-1.6793893129770991	7.343511450381679	1.0687022900763359	-0.10344827586206896	0.42278860569715143	0.11244377811094453	
1.7089453554440454E12	1.5543478260869565	-6.25	4.119565217391305	3994.139194139194	128.0	128.0	2.4440577559539984	0.2977180835864641	2.7417758395404626	484.931768170806	598.8625936344378	-1.648854961832061	7.343511450381679	1.099236641221374	-0.10644677661169415	0.4077961019490255	0.11544227886056971	
1.7089453554635771E12	1.5543478260869565	-6.228260869565217	4.108695652173913	3994.139194139194	128.0	128.0	2.4518468918617837	0.29202047491317673	2.7438673667749605	484.93357121152536	598.8544438903862	-2.259541984732824	7.114503816793893	1.0687022900763359	-0.12143928035982009	0.41829085457271364	0.12293853073463268	
1.7089453554831091E12	1.576086956521739	-6.271739130434782	4.163043478260869	3994.139194139194	128.0	128.0	2.450404459286268	0.2971411105562578	2.7475455698425257	484.9364560766764	598.8463662679633	-2.6564885496183206	7.297709923664121	0.8244274809160305	-0.11544227886056971	0.416791604197901	0.09895052473763118	
1.7089453555026409E12	1.5869565217391304	-6.282608695652174	4.141304347826087	3989.7435897435894	128.0	128.0	2.451342040460353	0.29259744794338305	2.7439394884037362	484.9368888064491	598.8408850241763	-3.16030534351145	7.66412213740458	0.549618320610687	-0.11094452773613193	0.41829085457271364	0.11244377811094453	
1.7089453555221729E12	1.608695652173913	-6.282608695652174	4.119565217391305	3992.6739926739924	128.0	128.0	2.4480965671654427	0.30702177369854144	2.755118340863984	484.93277787360887	598.8554535931889	-2.4732824427480917	7.206106870229007	0.732824427480916	-0.11094452773613193	0.42278860569715143	0.12593703148425786	
1.7089453555417048E12	1.576086956521739	-6.260869565217391	4.130434782608695	3992.6739926739924	128.0	128.0	2.432662538607423	0.35822813012935306	2.7908906687367763	484.93133544103335	598.8718973245499	-2.9770992366412212	6.916030534351145	1.0534351145038168	-0.10794602698650674	0.416791604197901	0.11394302848575712	
1.7089453555612366E12	1.5543478260869565	-6.293478260869565	4.1521739130434785	3966.300366300366	128.0	128.0	2.368330045739418	0.42010848761898156	2.7884385333583994	484.9286669407686	598.8656948644751	-2.7022900763358777	7.083969465648854	1.099236641221374	-0.1199400299850075	0.4197901049475262	0.12143928035982009	
1.7089453555807686E12	1.5543478260869565	-6.260869565217391	4.173913043478261	3994.139194139194	128.0	128.0	2.3712870325192252	0.431287340079229	2.802574372598454	484.92715238656433	598.8366298480785	-2.8854961832061066	6.900763358778626	0.732824427480916	-0.10794602698650674	0.41379310344827586	0.11094452773613193	
1.7089453556003005E12	1.5326086956521738	-6.282608695652174	4.163043478260869	3994.139194139194	128.0	128.0	2.3864325745621415	0.35505477846321787	2.7414873530253594	484.92902754891253	598.8442026191	-2.5038167938931295	7.0534351145038165	1.0076335877862594	-0.1394302848575712	0.4197901049475262	0.11394302848575712	
1.7089453556198323E12	1.5543478260869565	-6.282608695652174	4.108695652173913	3991.208791208791	128.0	128.0	2.465405758071632	0.2975017187001372	2.7629074767717694	484.9270081433068	598.8494674980006	-1.6946564885496183	6.793893129770992	0.916030534351145	-0.1199400299850075	0.3988005997001499	0.11094452773613193	
1.7089453556393643E12	1.5434782608695652	-6.282608695652174	4.119565217391305	3992.6739926739924	128.0	128.0	2.4822100975763917	0.2672827562430804	2.749492853819472	484.9221759941788	598.8504772008034	-2.3664122137404577	7.099236641221374	0.7786259541984732	-0.13193403298350825	0.41379310344827586	0.12443778110944527	
1.7089453556588962E12	1.5543478260869565	-6.260869565217391	4.1521739130434785	3989.7435897435894	128.0	128.0	2.4952641123848096	0.2635324315467398	2.7587965439315494	484.93018149497294	598.8610790802335	-2.1068702290076335	7.206106870229007	0.916030534351145	-0.10794602698650674	0.41379310344827586	0.1169415292353823	
1.708945355678428E12	1.5652173913043477	-6.271739130434782	4.173913043478261	3992.6739926739924	128.0	128.0	2.530603710484947	0.2842313390053919	2.814835049490339	484.927585116337	598.8701664054593	-3.2671755725190836	7.190839694656488	0.916030534351145	-0.10644677661169415	0.4257871064467766	0.10794602698650674	
1.70894535569796E12	1.576086956521739	-6.282608695652174	4.141304347826087	3992.6739926739924	128.0	128.0	1.9310566104717983	0.9649873930200807	2.896044003491879	484.9329221168664	599.0209006096006	-2.564885496183206	6.702290076335878	0.8702290076335878	-0.11544227886056971	0.424287856071964	0.12143928035982009	
1.708945355717492E12	1.5652173913043477	-6.271739130434782	4.163043478260869	3967.7655677655675	128.0	128.0	1.6308863915069571	1.2240482835827213	2.8549346750896785	484.93133544103335	598.5713664974412	-1.83206106870229	7.3893129770992365	0.6412213740458015	-0.10644677661169415	0.41079460269865065	0.1199400299850075	
1.7089453557370237E12	1.5543478260869565	-6.25	4.08695652173913	3994.139194139194	128.0	128.0	2.3712149108904494	0.33067766793700093	2.7018925788274504	484.9285226975111	598.7446747713893	-3.1755725190839694	6.030534351145038	1.083969465648855	-0.11544227886056971	0.42728635682158916	0.13193403298350825	
1.7089453557565557E12	1.5652173913043477	-6.271739130434782	4.293478260869565	3992.6739926739924	128.0	128.0	2.42963343019884	0.40590052675015054	2.8355339569489906	484.92974876520026	598.9426486423789	-3.2519083969465647	7.297709923664121	1.0076335877862594	-0.11544227886056971	0.43178410794602695	0.10344827586206896	
1.7089453557760876E12	1.4891304347826086	-6.271739130434782	4.163043478260869	3992.6739926739924	128.0	128.0	2.448601418566873	0.39796714758481366	2.846568566151687	484.92232023743634	598.9425765207501	-2.687022900763359	9.068702290076336	0.6717557251908397	-0.11544227886056971	0.40629685157421286	0.1169415292353823	
1.7089453557956194E12	1.5434782608695652	-6.260869565217391	4.0978260869565215	3994.139194139194	128.0	128.0	2.452495986520766	0.39861624224379577	2.8511122287645616	484.9197238588004	598.9476971563932	-0.7175572519083969	8.015267175572518	0.732824427480916	-0.10794602698650674	0.42728635682158916	0.13193403298350825	
1.7089453558151514E12	1.6195652173913042	-6.271739130434782	4.08695652173913	3991.208791208791	128.0	128.0	2.4429759315223616	0.40712659443933896	2.8501025259617006	484.92167114277737	598.9476971563932	-1.1450381679389312	7.206106870229007	1.4198473282442747	-0.10794602698650674	0.40929535232383807	0.10644677661169415	
1.7089453558346833E12	1.5543478260869565	-6.260869565217391	4.217391304347826	3964.8351648351645	128.0	128.0	2.4143436448983726	0.44347589534233745	2.85781954024071	484.92448388629964	598.9718579020331	-3.3435114503816794	6.748091603053435	1.3893129770992365	-0.1184407796101949	0.41529235382308843	0.11544227886056971	
1.708945355854215E12	1.5869565217391304	-6.304347826086956	4.217391304347826	3994.139194139194	128.0	128.0	2.401722359862609	0.4476589498113337	2.8493813096739427	484.92462812955716	598.9939271204385	-3.8625954198473282	5.6183206106870225	0.5343511450381679	-0.12443778110944527	0.424287856071964	0.11394302848575712	
1.708945355873747E12	1.5543478260869565	-6.293478260869565	4.1521739130434785	3970.6959706959706	128.0	128.0	2.3789319251694594	0.4672039112095727	2.846135836379032	484.9249887377011	599.014337541382	-2.717557251908397	5.66412213740458	0.7633587786259541	-0.11394302848575712	0.4047976011994003	0.13043478260869565	
1.7089453558932788E12	1.5326086956521738	-6.358695652173913	4.130434782608695	3995.6043956043954	128.0	128.0	2.326932230822114	0.4970622655227501	2.823994496344864	484.92946027868516	599.0875409945895	-1.7709923664122136	6.045801526717557	0.564885496183206	-0.13493253373313344	0.41379310344827586	0.11394302848575712	
1.7089453559128108E12	1.5434782608695652	-6.326086956521739	4.184782608695652	3994.139194139194	128.0	128.0	2.2773846718531456	0.5242521195712233	2.801636791424369	484.9305421031168	599.1351412695815	1.0534351145038168	6.3969465648854955	1.0076335877862594	-0.136431784107946	0.41529235382308843	0.1199400299850075	
1.7089453559323428E12	1.5543478260869565	-6.304347826086956	4.173913043478261	3992.6739926739924	128.0	128.0	2.2323807754970524	0.5370176478645381	2.7693984233615905	484.93342696826784	599.1802172875664	1.0076335877862594	6.3206106870229	1.297709923664122	-0.12143928035982009	0.4047976011994003	0.10794602698650674	
1.7089453559518745E12	1.5869565217391304	-6.195652173913043	4.271739130434782	3992.6739926739924	128.0	128.0	2.2688021980288267	0.5471146758931491	2.8159168739219758	484.93162392754846	599.0734772769782	0.732824427480916	5.984732824427481	1.5114503816793892	-0.12143928035982009	0.41079460269865065	0.11544227886056971	
1.7089453559714065E12	1.5652173913043477	-6.228260869565217	4.217391304347826	3994.139194139194	128.0	128.0	2.39176957509155	0.4692954384440706	2.8610650135356206	484.931768170806	598.9328401008654	-0.10687022900763359	6.671755725190839	0.9618320610687022	-0.12743628185907047	0.40929535232383807	0.11394302848575712	
1.7089453559909385E12	1.5543478260869565	-6.195652173913043	4.260869565217392	3992.6739926739924	128.0	128.0	2.4325182953498716	0.43633585409353426	2.868854149443406	484.93162392754846	598.8969956513638	-0.4580152671755725	6.824427480916031	0.916030534351145	-0.11244377811094453	0.416791604197901	0.12893553223388304	
1.7089453560104702E12	1.5326086956521738	-6.228260869565217	4.260869565217392	3991.208791208791	128.0	128.0	2.441172890802967	0.4074872025832179	2.8486600933861848	484.9347972792146	598.8752870411023	-2.0	7.068702290076335	1.0076335877862594	-0.11544227886056971	0.40929535232383807	0.12143928035982009	
1.7089453560300022E12	1.5326086956521738	-6.25	4.1521739130434785	3967.7655677655675	128.0	128.0	2.4451395803856353	0.3979671475848132	2.8431067279704485	484.93573486038866	598.8813452579195	-1.4351145038167938	6.33587786259542	0.9770992366412213	-0.10644677661169415	0.41829085457271364	0.1199400299850075	
1.7089453560495342E12	1.576086956521739	-6.239130434782608	4.271739130434782	3994.139194139194	128.0	128.0	2.4557414598156764	0.38577859232170475	2.841520052137381	484.933066360124	598.8738446085268	-0.7480916030534351	6.427480916030534	0.916030534351145	-0.10494752623688156	0.4197901049475262	0.11394302848575712	
1.708945356069066E12	1.5434782608695652	-6.282608695652174	4.206521739130435	3992.6739926739924	128.0	128.0	2.4564626761034343	0.3906828630784589	2.847145539181893	484.93342696826784	598.8782440278821	-1.3893129770992365	6.045801526717557	1.1908396946564885	-0.1199400299850075	0.424287856071964	0.11394302848575712	
1.708945356088598E12	1.5652173913043477	-6.282608695652174	4.260869565217392	3992.6739926739924	128.0	128.0	2.458337838451605	0.38823072770008205	2.846568566151687	484.9347972792146	598.8651178914449	-0.8244274809160305	6.931297709923664	0.9923664122137404	-0.12443778110944527	0.416791604197901	0.11094452773613193	
1.70894535610813E12	1.5652173913043477	-6.260869565217391	4.25	3994.139194139194	128.0	128.0	2.452063256748111	0.3903222549345795	2.8423855116826906	484.93400394129804	598.8888459073122	-1.66412213740458	6.65648854961832	0.7633587786259541	-0.11094452773613193	0.41829085457271364	0.13043478260869565	
1.7089453561276616E12	1.576086956521739	-6.239130434782608	4.260869565217392	3994.139194139194	128.0	128.0	2.445211702014411	0.3926301470554048	2.837841849069816	484.9334990898966	598.875719770875	-1.099236641221374	6.809160305343511	1.099236641221374	-0.1184407796101949	0.42278860569715143	0.1199400299850075	
1.7089453561471936E12	1.5434782608695652	-6.260869565217391	4.260869565217392	3992.6739926739924	128.0	128.0	2.4605014873148785	0.37726824012616156	2.83776972744104	484.9374657794793	598.8712482298909	-1.4809160305343512	6.931297709923664	1.2061068702290076	-0.1184407796101949	0.4287856071964018	0.11244377811094453	
1.7089453561667256E12	1.5543478260869565	-6.260869565217391	4.293478260869565	3992.6739926739924	128.0	128.0	2.452784473035869	0.3768355103535068	2.829619983389376	484.94251429349356	598.8634590939831	-1.2213740458015268	7.709923664122137	1.2213740458015268	-0.1199400299850075	0.43178410794602695	0.11394302848575712	
1.7089453561862573E12	1.5	-6.25	4.271739130434782	3967.7655677655675	128.0	128.0	2.4625930145493764	0.3699839556198068	2.832576970169183	484.94208156372093	598.863819702127	-0.4580152671755725	7.923664122137405	1.2213740458015268	-0.10644677661169415	0.41079460269865065	0.1199400299850075	
1.7089453562057893E12	1.5543478260869565	-6.228260869565217	4.315217391304348	3994.139194139194	128.0	128.0	2.45653479773221	0.36601726603713836	2.8225520637693484	484.93941306345624	598.8638918237558	-0.6259541984732824	7.312977099236641	1.0687022900763359	-0.13193403298350825	0.4017991004497751	0.1169415292353823	
1.708945356225321E12	1.5543478260869565	-6.25	4.304347826086956	3994.139194139194	128.0	128.0	2.466776069018372	0.3502226293352404	2.8169986983536126	484.9422979286073	598.8521359982653	-1.4961832061068703	6.564885496183206	1.0381679389312977	-0.1184407796101949	0.43628185907046474	0.11244377811094453	
1.708945356244853E12	1.5543478260869565	-6.25	4.293478260869565	3991.208791208791	128.0	128.0	2.460717852201206	0.3672433337263268	2.8279611859275327	484.944317334213	598.8526408496667	-1.2213740458015268	6.549618320610687	1.1450381679389312	-0.12143928035982009	0.41529235382308843	0.11544227886056971	
1.708945356264385E12	1.5326086956521738	-6.239130434782608	4.282608695652174	3994.139194139194	128.0	128.0	2.4567511626185374	0.3526747647136168	2.8094259273321542	484.9484282670532	598.8530014578106	-0.8091603053435115	6.824427480916031	1.1450381679389312	-0.10794602698650674	0.4197901049475262	0.1169415292353823	
1.7089453562839167E12	1.5217391304347825	-6.228260869565217	4.33695652173913	3991.208791208791	128.0	128.0	2.459996635913448	0.34827534535829363	2.8082719812717416	484.950736159174	598.8530735794394	-1.450381679389313	7.0534351145038165	1.1755725190839694	-0.11394302848575712	0.43628185907046474	0.1199400299850075	
1.7089453563034487E12	1.5326086956521738	-6.217391304347826	4.304347826086956	3992.6739926739924	128.0	128.0	2.4543711488689364	0.36118511690916044	2.815556265778097	484.95189010523444	598.8524966064092	-1.8015267175572518	7.465648854961832	1.099236641221374	-0.10794602698650674	0.42728635682158916	0.10644677661169415	
1.7089453563229807E12	1.5217391304347825	-6.271739130434782	4.315217391304348	3994.139194139194	128.0	128.0	2.4518468918617837	0.39731805292583156	2.8491649447876153	484.9572271057638	598.8465105112208	-2.0610687022900764	7.007633587786259	1.0687022900763359	-0.1199400299850075	0.424287856071964	0.1169415292353823	
1.7089453563425125E12	1.5434782608695652	-6.228260869565217	4.326086956521739	3967.7655677655675	128.0	128.0	2.3932120076670658	0.4582608292413748	2.8514728369084406	484.95189010523444	598.8588433097415	-1.450381679389313	6.870229007633587	1.099236641221374	-0.11244377811094453	0.416791604197901	0.10344827586206896	
1.7089453563620444E12	1.5434782608695652	-6.206521739130435	4.33695652173913	3995.6043956043954	128.0	128.0	2.37720100607884	0.4945380085155975	2.8717390145944375	484.9539816324689	598.8218449141795	-1.6793893129770991	6.778625954198473	1.2366412213740459	-0.11244377811094453	0.42728635682158916	0.10644677661169415	
1.7089453563815764E12	1.5217391304347825	-6.217391304347826	4.33695652173913	3994.139194139194	128.0	128.0	2.4007847786885237	0.4131848112565053	2.813969589945029	484.95657801110485	598.8337449829274	-2.091603053435114	6.549618320610687	1.0687022900763359	-0.10344827586206896	0.42278860569715143	0.11244377811094453	
1.7089453564011082E12	1.5217391304347825	-6.217391304347826	4.304347826086956	3992.6739926739924	128.0	128.0	2.4586984465954838	0.37734036175493735	2.836038808350421	484.96169864674795	598.8326631584958	-2.0610687022900764	7.190839694656488	0.9923664122137404	-0.11244377811094453	0.41379310344827586	0.10644677661169415	
1.7089453564206401E12	1.5108695652173914	-6.217391304347826	4.271739130434782	3992.6739926739924	128.0	128.0	2.477305826819638	0.3321201005125163	2.8094259273321542	484.95903014648326	598.847087484251	-1.6030534351145038	7.114503816793893	0.9923664122137404	-0.11094452773613193	0.4257871064467766	0.11244377811094453	
1.708945356440172E12	1.5434782608695652	-6.239130434782608	4.358695652173913	3991.208791208791	128.0	128.0	2.478676137766378	0.33298556005782576	2.8116616978242037	484.961049552089	598.847375970766	-1.0076335877862594	7.083969465648854	1.297709923664122	-0.11094452773613193	0.4332833583208396	0.10794602698650674	
1.7089453564597039E12	1.5652173913043477	-6.25	4.413043478260869	3992.6739926739924	128.0	128.0	2.5259879262432965	0.3649354416055015	2.890923367848798	484.96040045742996	598.8983659623105	-1.8931297709923662	6.442748091603053	1.4351145038167938	-0.1199400299850075	0.416791604197901	0.11094452773613193	
1.7089453564792358E12	1.5217391304347825	-6.293478260869565	4.380434782608695	3992.6739926739924	128.0	128.0	2.005702496254742	0.937292687570177	2.942995183824919	484.96552109307305	599.0334497730076	-1.7709923664122136	6.412213740458015	1.3893129770992365	-0.12443778110944527	0.42728635682158916	0.12143928035982009	
1.7089453564987678E12	1.5326086956521738	-6.239130434782608	4.3478260869565215	3969.230769230769	128.0	128.0	1.6053553349203271	1.3098009001971367	2.915156235117464	484.9647998767853	598.6596433710628	-0.6259541984732824	7.190839694656488	1.083969465648855	-0.1199400299850075	0.424287856071964	0.10644677661169415	
1.7089453565182996E12	1.5326086956521738	-6.228260869565217	4.282608695652174	3994.139194139194	128.0	128.0	2.357367558165498	0.29822293498789465	2.6555904931533925	484.96818959333774	598.8445632272438	-2.1526717557251906	5.83206106870229	1.0381679389312977	-0.11094452773613193	0.41529235382308843	0.10794602698650674	
1.7089453565378315E12	1.5217391304347825	-6.195652173913043	4.5	3992.6739926739924	128.0	128.0	2.4079969415661027	0.45003896356093476	2.8580359051270374	484.9731659857233	598.9105545175737	-2.4580152671755724	7.694656488549618	1.297709923664122	-0.10794602698650674	0.43178410794602695	0.11394302848575712	
1.7089453565573635E12	1.467391304347826	-6.163043478260869	4.380434782608695	3991.208791208791	128.0	128.0	2.441749863833173	0.45263534219686274	2.894385206030036	484.97049748545857	598.9143769638988	-2.3206106870229006	9.17557251908397	0.22900763358778625	-0.11094452773613193	0.41829085457271364	0.10494752623688156	
1.7089453565768953E12	1.5434782608695652	-6.195652173913043	4.304347826086956	3994.139194139194	128.0	128.0	2.4288400922823064	0.44693773352357535	2.8757778258058817	484.97049748545857	598.9314697899187	-1.648854961832061	7.297709923664121	0.9465648854961831	-0.1184407796101949	0.4332833583208396	0.11244377811094453	
1.7089453565964272E12	1.5434782608695652	-6.184782608695652	4.315217391304348	3969.230769230769	128.0	128.0	2.409872103914273	0.4879749402970006	2.897847044211274	484.9622034981494	598.9429371288941	-1.8473282442748091	7.190839694656488	1.3740458015267174	-0.13343328335832083	0.4257871064467766	0.09745127436281859	
1.708945356615959E12	1.5326086956521738	-6.217391304347826	4.413043478260869	3992.6739926739924	128.0	128.0	2.3916253318339984	0.4979277250680596	2.889553056902058	484.9651604849292	598.9388261960538	-2.9770992366412212	6.290076335877862	0.9465648854961831	-0.1199400299850075	0.416791604197901	0.10344827586206896	
1.708945356635491E12	1.5434782608695652	-6.25	4.4021739130434785	3992.6739926739924	128.0	128.0	2.3823216417219215	0.513578118512406	2.8958997602343275	484.96912717451187	598.9554141706723	-3.7557251908396947	4.442748091603053	0.6106870229007634	-0.11244377811094453	0.42728635682158916	0.12143928035982009	
1.708945356655023E12	1.5217391304347825	-6.184782608695652	4.326086956521739	3967.7655677655675	128.0	128.0	2.3440250568419763	0.519203605556918	2.8632286623988943	484.9718677964053	599.0192418121388	-2.198473282442748	4.076335877862595	0.7022900763358778	-0.10794602698650674	0.40929535232383807	0.1169415292353823	
1.7089453566745547E12	1.5108695652173914	-6.206521739130435	4.391304347826087	3994.139194139194	128.0	128.0	2.2889962540860482	0.5334115664257486	2.822407820511797	484.9720120396629	599.0639572219798	-2.3053435114503817	4.9465648854961835	0.9312977099236641	-0.13193403298350825	0.416791604197901	0.10644677661169415	
1.7089453566940867E12	1.5326086956521738	-6.239130434782608	4.413043478260869	3994.139194139194	128.0	128.0	2.2362032218221692	0.5445182972572202	2.7807215190793895	484.9720120396629	599.1222314980306	-2.595419847328244	5.877862595419847	1.0687022900763359	-0.12593703148425786	0.4257871064467766	0.11544227886056971	
1.7089453567136187E12	1.5434782608695652	-6.239130434782608	4.369565217391305	3992.6739926739924	128.0	128.0	2.2044697051608213	0.5638468937691323	2.7683165989299536	484.97843086462393	599.1321121611729	-2.198473282442748	6.3206106870229	1.1603053435114503	-0.10644677661169415	0.42278860569715143	0.10494752623688156	
1.7089453567331504E12	1.5326086956521738	-6.184782608695652	4.413043478260869	3994.139194139194	128.0	128.0	2.2923138490097346	0.5690396510409892	2.8613535000507238	484.9812436081462	598.9854888898717	-2.091603053435114	6.106870229007633	0.8091603053435115	-0.12443778110944527	0.40929535232383807	0.11394302848575712	
1.7089453567526824E12	1.5326086956521738	-6.184782608695652	4.380434782608695	3994.139194139194	128.0	128.0	2.367320342936557	0.4986489413558175	2.8659692842923743	484.9867969735619	598.9015393139767	-2.595419847328244	6.427480916030534	1.297709923664122	-0.12143928035982009	0.41829085457271364	0.10794602698650674	
1.7089453567722144E12	1.5326086956521738	-6.206521739130435	4.4021739130434785	3992.6739926739924	128.0	128.0	2.4219164159198305	0.4436922602286648	2.8656086761484953	484.98160421629007	598.8458614165618	-1.7099236641221374	6.366412213740458	1.0534351145038168	-0.12143928035982009	0.4332833583208396	0.11544227886056971	
1.708945356791746E12	1.5	-6.206521739130435	4.423913043478261	3992.6739926739924	128.0	128.0	2.4350425523570243	0.42032485250530893	2.855367404862333	484.9844890814411	598.8382886455404	-2.0610687022900764	7.145038167938931	1.0076335877862594	-0.12743628185907047	0.424287856071964	0.1169415292353823	
1.708945356811278E12	1.5217391304347825	-6.228260869565217	4.358695652173913	3969.230769230769	128.0	128.0	2.4360522551598853	0.41513209523345207	2.8511843503933374	484.98643636541806	598.827470401224	-2.4732824427480917	6.030534351145038	1.3129770992366412	-0.11094452773613193	0.42278860569715143	0.11244377811094453	
1.70894535683081E12	1.5217391304347825	-6.206521739130435	4.445652173913043	3992.6739926739924	128.0	128.0	2.441100769174191	0.42753701538288746	2.8686377845570785	484.9897539603417	598.8418947269791	-1.8778625954198473	6.152671755725191	0.916030534351145	-0.10644677661169415	0.41529235382308843	0.1199400299850075	
1.7089453568503418E12	1.5108695652173914	-6.173913043478261	4.282608695652174	3992.6739926739924	128.0	128.0	2.443913512696447	0.4188824199297927	2.8627959326262395	484.98795091962234	598.8299225366023	-1.4351145038167938	6.33587786259542	0.7480916030534351	-0.1184407796101949	0.41829085457271364	0.11244377811094453	
1.7089453568698738E12	1.5	-6.163043478260869	4.456521739130435	3991.208791208791	128.0	128.0	2.4420383503482763	0.41982000110387796	2.8618583514521543	484.98809516287986	598.8325189152383	-2.4885496183206106	6.030534351145038	0.5801526717557252	-0.12443778110944527	0.42728635682158916	0.12143928035982009	
1.7089453568894058E12	1.5217391304347825	-6.141304347826087	4.434782608695652	3994.139194139194	128.0	128.0	2.4338886062966116	0.42991702913248897	2.8638056354291006	484.98809516287986	598.8224940088385	-3.16030534351145	5.480916030534351	0.6412213740458015	-0.11544227886056971	0.42728635682158916	0.12143928035982009	
1.7089453569089375E12	1.5543478260869565	-6.1521739130434785	4.369565217391305	3991.208791208791	128.0	128.0	2.434465579326818	0.42162304182327315	2.856088621150091	484.98643636541806	598.8293455635721	-2.717557251908397	5.938931297709924	0.7480916030534351	-0.10494752623688156	0.42728635682158916	0.12893553223388304	
1.7089453569284695E12	1.5217391304347825	-6.163043478260869	4.380434782608695	3992.6739926739924	128.0	128.0	2.4359801335311095	0.42782550189799107	2.8638056354291006	484.98672485193316	598.8229988602399	-2.732824427480916	6.702290076335878	0.8091603053435115	-0.12143928035982009	0.42278860569715143	0.09745127436281859	
1.7089453569480015E12	1.5326086956521738	-6.173913043478261	4.33695652173913	3992.6739926739924	128.0	128.0	2.4449953371280837	0.41563694663488215	2.860632283762966	484.9901866901144	598.8152818459608	-2.8854961832061066	8.045801526717558	1.114503816793893	-0.11394302848575712	0.42278860569715143	0.09745127436281859	
1.7089453569675332E12	1.5326086956521738	-6.163043478260869	4.33695652173913	3967.7655677655675	128.0	128.0	2.445932918302169	0.41844969015713795	2.864382608459307	484.9893212305691	598.8092236291437	-3.450381679389313	7.83206106870229	1.083969465648855	-0.10644677661169415	0.4332833583208396	0.11544227886056971	
1.7089453569870652E12	1.5543478260869565	-6.1521739130434785	4.326086956521739	3994.139194139194	128.0	128.0	2.4432644180374647	0.4119587435673169	2.8552231616047816	484.9859315140166	598.8084302912272	-4.824427480916031	7.9541984732824424	1.1450381679389312	-0.10344827586206896	0.41829085457271364	0.1199400299850075	
1.708945357006597E12	1.5652173913043477	-6.119565217391304	4.369565217391305	3992.6739926739924	128.0	128.0	2.450404459286268	0.39652471500929787	2.846929174295566	484.9836236218958	598.8077090749395	-5.603053435114504	6.7328244274809155	0.916030534351145	-0.10644677661169415	0.4287856071964018	0.11244377811094453	
1.708945357026129E12	1.5434782608695652	-6.163043478260869	4.4021739130434785	3992.6739926739924	128.0	128.0	2.441533498946846	0.41996424436142954	2.8614977433082753	484.9897539603417	598.8111709131207	-5.9541984732824424	6.8396946564885495	0.5954198473282443	-0.10794602698650674	0.4197901049475262	0.11394302848575712	
1.708945357045661E12	1.5108695652173914	-6.195652173913043	4.33695652173913	3994.139194139194	128.0	128.0	2.436845593076419	0.4309988535641258	2.867844446640545	484.9846333246986	598.7929241410404	-6.045801526717557	6.824427480916031	0.5038167938931297	-0.1184407796101949	0.4287856071964018	0.1199400299850075	
1.7089453570651926E12	1.5	-6.228260869565217	4.358695652173913	3994.139194139194	128.0	128.0	2.443552904552568	0.47319000639796327	2.916742910950531	484.9839121084109	598.794005965472	-6.0	7.3893129770992365	0.47328244274809156	-0.11094452773613193	0.4332833583208396	0.1199400299850075	
1.7089453570847246E12	1.5108695652173914	-6.228260869565217	4.358695652173913	3992.6739926739924	128.0	128.0	2.411098171603462	0.49893742787092066	2.9100355994743827	484.98578727075903	598.8070599802804	-5.32824427480916	7.267175572519084	0.564885496183206	-0.09745127436281859	0.40929535232383807	0.11094452773613193	
1.7089453571042566E12	1.5326086956521738	-6.260869565217391	4.4021739130434785	3994.139194139194	128.0	128.0	2.38902895319807	0.5396140265004665	2.9286429796985365	484.9821811893203	598.7663112600221	-4.351145038167939	6.702290076335878	0.42748091603053434	-0.11244377811094453	0.42728635682158916	0.10644677661169415	
1.7089453571237883E12	1.5217391304347825	-6.282608695652174	4.391304347826087	3969.230769230769	128.0	128.0	2.3898944127433794	0.4848737102596412	2.8747681230030206	484.9818205811764	598.7746052473314	-3.3893129770992365	6.6106870229007635	0.33587786259541985	-0.12743628185907047	0.416791604197901	0.1169415292353823	
1.7089453571433203E12	1.5217391304347825	-6.271739130434782	4.369565217391305	3966.300366300366	128.0	128.0	2.455452973300573	0.41563694663488215	2.8710899199354554	484.9761229725031	598.7850628835038	-1.648854961832061	6.900763358778626	0.5190839694656488	-0.11394302848575712	0.41079460269865065	0.10194902548725637	
1.7089453571628523E12	1.5	-6.228260869565217	4.391304347826087	3992.6739926739924	128.0	128.0	2.4617996766328427	0.4012126208797242	2.863012297512567	484.97944056742676	598.7865774377082	-0.6106870229007634	6.65648854961832	0.549618320610687	-0.11244377811094453	0.43178410794602695	0.11394302848575712	
1.708945357182384E12	1.5108695652173914	-6.217391304347826	4.423913043478261	3992.6739926739924	128.0	128.0	2.4770894619333106	0.38577859232170475	2.8628680542550153	484.97388720201104	598.7879477486548	-0.5190839694656488	6.671755725190839	0.8549618320610687	-0.1199400299850075	0.42728635682158916	0.12443778110944527	
1.708945357201916E12	1.5217391304347825	-6.195652173913043	4.4021739130434785	3992.6739926739924	128.0	128.0	2.5129339114348785	0.4250127583757348	2.9379466698106134	484.97489690481393	598.8057617909625	-1.1908396946564885	6.213740458015267	0.7175572519083969	-0.12143928035982009	0.41529235382308843	0.1199400299850075	
1.708945357221448E12	1.5434782608695652	-6.163043478260869	4.369565217391305	3992.6739926739924	128.0	128.0	2.2098788273190055	0.7068640836315256	2.916742910950531	484.97749328344986	598.9712088073742	-2.396946564885496	6.045801526717557	0.7633587786259541	-0.11394302848575712	0.42278860569715143	0.10794602698650674	
1.7089453572409797E12	1.5108695652173914	-6.173913043478261	4.358695652173913	3991.208791208791	128.0	128.0	1.8323942223065166	1.2992711423958712	3.1316653647023878	484.96963202591326	598.5068176396868	-3.1908396946564883	6.671755725190839	0.7022900763358778	-0.11394302848575712	0.4287856071964018	0.12593703148425786	
1.7089453572605117E12	1.5543478260869565	-6.184782608695652	4.304347826086956	3992.6739926739924	128.0	128.0	2.3776337358514947	0.41174237868098995	2.7893761145324847	484.9735265938672	598.7349383515046	-4.2748091603053435	5.648854961832061	0.732824427480916	-0.12743628185907047	0.4197901049475262	0.11094452773613193	
1.7089453572800437E12	1.5652173913043477	-6.217391304347826	4.521739130434782	3969.230769230769	128.0	128.0	2.4286958490247548	0.5245406060863265	2.9532364551110812	484.97619509413187	598.8576172420522	-5.206106870229007	6.671755725190839	0.6106870229007634	-0.10494752623688156	0.43178410794602695	0.11094452773613193	
1.7089453572995754E12	1.4565217391304348	-6.195652173913043	4.358695652173913	3966.300366300366	128.0	128.0	2.421050956374521	0.5307430661610444	2.9517940225355654	484.96977626917084	598.8534341875833	-4.931297709923664	8.259541984732824	0.22900763358778625	-0.10044977511244378	0.42728635682158916	0.12143928035982009	
1.7089453573191074E12	1.5326086956521738	-6.217391304347826	4.260869565217392	3992.6739926739924	128.0	128.0	2.4304988897441495	0.5323297419941118	2.9628286317382613	484.96818959333774	598.8742773382995	-3.49618320610687	8.610687022900763	0.4580152671755725	-0.10644677661169415	0.42278860569715143	0.10794602698650674	
1.7089453573386394E12	1.5869565217391304	-6.184782608695652	4.304347826086956	3991.208791208791	128.0	128.0	2.4127569690653052	0.5422825267651707	2.955039495830476	484.96919929614063	598.8756476492462	-3.8167938931297707	7.8473282442748085	0.7175572519083969	-0.1199400299850075	0.41379310344827586	0.1169415292353823	
1.7089453573581711E12	1.5326086956521738	-6.195652173913043	4.380434782608695	3966.300366300366	128.0	128.0	2.3987653730828016	0.5681741914956797	2.9669395645784813	484.9666029175047	598.9034865979537	-5.114503816793893	7.2824427480916025	0.6412213740458015	-0.11544227886056971	0.424287856071964	0.1169415292353823	
1.7089453573777031E12	1.5326086956521738	-6.25	4.380434782608695	3992.6739926739924	128.0	128.0	2.3854949933880563	0.5699772322150745	2.9554722256031307	484.9655932147018	598.9254836947302	-5.404580152671755	5.786259541984733	0.2748091603053435	-0.12893553223388304	0.42278860569715143	0.11244377811094453	
1.7089453573972349E12	1.5217391304347825	-6.228260869565217	4.315217391304348	3991.208791208791	128.0	128.0	2.3613342477481662	0.5825985172508381	2.9439327649990044	484.9624919846645	598.9676748475641	-3.633587786259542	5.450381679389313	0.3511450381679389	-0.11544227886056971	0.41379310344827586	0.11094452773613193	
1.7089453574167668E12	1.5217391304347825	-6.228260869565217	4.33695652173913	3992.6739926739924	128.0	128.0	2.3098394048022515	0.6111586822460513	2.9209980870483028	484.9629968360659	599.0417437603169	-2.4732824427480917	6.305343511450381	0.5343511450381679	-0.12593703148425786	0.4257871064467766	0.11544227886056971	
1.7089453574362988E12	1.5434782608695652	-6.206521739130435	4.369565217391305	3967.7655677655675	128.0	128.0	2.2572627374247003	0.6323624411061335	2.889625178530834	484.9647998767853	599.0904258597405	-2.2900763358778624	7.801526717557252	0.8091603053435115	-0.11244377811094453	0.4197901049475262	0.11094452773613193	
1.7089453574558306E12	1.5652173913043477	-6.184782608695652	4.391304347826087	3994.139194139194	128.0	128.0	2.2334625999286892	0.6602735114423646	2.893736111371054	484.9607610655739	599.084800372696	-3.2213740458015265	8.351145038167939	0.9618320610687022	-0.11394302848575712	0.4047976011994003	0.10794602698650674	
1.7089453574753625E12	1.5434782608695652	-6.1521739130434785	4.380434782608695	3992.6739926739924	128.0	128.0	2.3015454174930357	0.6394303607261613	2.940975778219197	484.95960711951346	598.9747427671841	-4.015267175572519	7.236641221374046	0.5190839694656488	-0.11244377811094453	0.43478260869565216	0.11394302848575712	
1.7089453574948945E12	1.5108695652173914	-6.184782608695652	4.358695652173913	3992.6739926739924	128.0	128.0	2.405184198043847	0.5499274194154049	2.9551116174592518	484.9554961866732	598.858987552999	-4.183206106870228	6.870229007633587	0.3511450381679389	-0.12143928035982009	0.41529235382308843	0.0944527736131934	
1.7089453575144263E12	1.5217391304347825	-6.239130434782608	4.358695652173913	3966.300366300366	128.0	128.0	2.4470868643625816	0.5121356859368902	2.959222550299472	484.954919213643	598.8141278999004	-4.259541984732825	6.99236641221374	-0.030534351145038167	-0.1184407796101949	0.41829085457271364	0.1199400299850075	
1.7089453575339583E12	1.5217391304347825	-6.282608695652174	4.434782608695652	3992.6739926739924	128.0	128.0	2.4628815010644796	0.49259072453865116	2.9554722256031307	484.95672225436243	598.8108824266055	-3.9847328244274807	7.297709923664121	-0.1984732824427481	-0.11544227886056971	0.40929535232383807	0.11394302848575712	
1.7089453575534902E12	1.5217391304347825	-6.293478260869565	4.369565217391305	3991.208791208791	128.0	128.0	2.4649730282989775	0.4865325077214848	2.9515055360204623	484.95217859174954	598.8160030622487	-4.3206106870229	6.885496183206107	-0.16793893129770993	-0.10794602698650674	0.416791604197901	0.09895052473763118	
1.708945357573022E12	1.5543478260869565	-6.260869565217391	4.4021739130434785	3994.139194139194	128.0	128.0	2.4737718670096243	0.47412758757204854	2.947899454581673	484.95217859174954	598.8144163864156	-4.183206106870228	6.717557251908397	0.04580152671755725	-0.1199400299850075	0.4197901049475262	0.11094452773613193	
1.708945357592554E12	1.5434782608695652	-6.25	4.33695652173913	3969.230769230769	128.0	128.0	2.4693724476543006	0.486820994236588	2.9561934418908886	484.9536931459538	598.8229267386112	-3.2671755725190836	6.809160305343511	0.13740458015267176	-0.11094452773613193	0.4257871064467766	0.09745127436281859	
1.708945357612086E12	1.5434782608695652	-6.184782608695652	4.3478260869565215	3994.139194139194	128.0	128.0	2.47247367769166	0.48660462935026016	2.95907830704192	484.9475628075079	598.8185994408846	-3.4045801526717554	7.206106870229007	0.24427480916030533	-0.11394302848575712	0.4287856071964018	0.10794602698650674	
1.7089453576316177E12	1.5217391304347825	-6.206521739130435	4.434782608695652	3994.139194139194	128.0	128.0	2.4714639748887985	0.4894173728725164	2.960881347761315	484.9460482533036	598.8091515075149	-5.2824427480916025	6.763358778625954	-0.10687022900763359	-0.11244377811094453	0.424287856071964	0.11394302848575712	
1.7089453576511497E12	1.5326086956521738	-6.217391304347826	4.358695652173913	3991.208791208791	128.0	128.0	2.475286421213916	0.4863882644639328	2.9616746856778486	484.94561552353093	598.7986217497137	-4.7328244274809155	5.587786259541985	-0.030534351145038167	-0.11094452773613193	0.41529235382308843	0.1199400299850075	
1.7089453576706816E12	1.5434782608695652	-6.228260869565217	4.358695652173913	3994.139194139194	128.0	128.0	2.4722573128053327	0.48660462935026016	2.958861942155593	484.940134279744	598.7924914112677	-4.2748091603053435	5.83206106870229	0.15267175572519084	-0.11244377811094453	0.424287856071964	0.11094452773613193	
1.7089453576902134E12	1.5326086956521738	-6.239130434782608	4.358695652173913	3994.139194139194	128.0	128.0	2.4754306644714674	0.4814118720784033	2.9568425365498707	484.94309126652377	598.7958090061915	-4.076335877862595	7.007633587786259	0.32061068702290074	-0.11394302848575712	0.41529235382308843	0.11244377811094453	
1.7089453577097454E12	1.5652173913043477	-6.228260869565217	4.358695652173913	3972.161172161172	128.0	128.0	2.4732670156081937	0.47910397995757803	2.9523709955657718	484.93991791485763	598.8002084255468	-3.633587786259542	7.190839694656488	0.549618320610687	-0.11394302848575712	0.4257871064467766	0.10794602698650674	
1.7089453577292773E12	1.5652173913043477	-6.217391304347826	4.3478260869565215	3992.6739926739924	128.0	128.0	2.4880519495072306	0.4630208567405769	2.9510728062478075	484.9396294283425	598.808790899371	-3.465648854961832	7.1603053435114505	0.3511450381679389	-0.10644677661169415	0.4287856071964018	0.11244377811094453	
1.708945357748809E12	1.576086956521739	-6.228260869565217	4.304347826086956	3970.6959706959706	128.0	128.0	2.4778106782210685	0.4750651687461338	2.9528758469672023	484.9409997392893	598.803021169069	-3.3740458015267176	7.022900763358779	0.4580152671755725	-0.1184407796101949	0.43628185907046474	0.12293853073463268	
1.708945357768341E12	1.576086956521739	-6.260869565217391	4.33695652173913	3994.139194139194	128.0	128.0	2.487186489961921	0.465040262346299	2.95222675230822	484.93912457694114	598.7987659929712	-3.541984732824427	7.404580152671755	0.6259541984732824	-0.11094452773613193	0.4287856071964018	0.1199400299850075	
1.7089453577878728E12	1.5543478260869565	-6.239130434782608	4.315217391304348	3994.139194139194	128.0	128.0	2.492739855377657	0.46475177583119587	2.957491631208853	484.9384754822821	598.8079254398258	-3.5877862595419847	7.129770992366412	0.9312977099236641	-0.10794602698650674	0.43178410794602695	0.1169415292353823	
1.7089453578074048E12	1.576086956521739	-6.25	4.293478260869565	3989.7435897435894	128.0	128.0	2.49165803094602	0.45797234272627163	2.9496303736722917	484.93991791485763	598.8089351426286	-3.7251908396946565	7.221374045801526	0.8244274809160305	-0.1184407796101949	0.4287856071964018	0.11544227886056971	
1.7089453578269368E12	1.5869565217391304	-6.25	4.3478260869565215	3994.139194139194	128.0	128.0	2.4861046655302843	0.49749499529540486	2.983599660825689	484.93970154997135	598.8183830759982	-3.5725190839694654	7.297709923664121	0.6106870229007634	-0.11544227886056971	0.416791604197901	0.11094452773613193	
1.7089453578464685E12	1.5652173913043477	-6.25	4.326086956521739	3992.6739926739924	128.0	128.0	2.4739882318959516	0.5323297419941118	3.0063179738900634	484.93573486038866	598.8224940088385	-3.2671755725190836	7.0534351145038165	0.7633587786259541	-0.12443778110944527	0.416791604197901	0.13193403298350825	
1.7089453578660005E12	1.5652173913043477	-6.228260869565217	4.358695652173913	3992.6739926739924	128.0	128.0	2.4170842667918526	0.5879355177802466	3.005019784572099	484.9296766435715	598.801722979751	-3.236641221374046	6.900763358778626	0.6106870229007634	-0.1199400299850075	0.424287856071964	0.10344827586206896	
1.7089453578855325E12	1.5543478260869565	-6.260869565217391	4.358695652173913	3992.6739926739924	128.0	128.0	2.4245849161845348	0.5450231486586508	2.9696080648431855	484.9288111840262	598.7999920606604	-3.847328244274809	6.351145038167939	0.6870229007633587	-0.12143928035982009	0.4047976011994003	0.10494752623688156	
