"sep=	"
Shimmer_6D72_TimestampSync_Unix_CAL	Shimmer_6D72_Accel_LN_X_CAL	Shimmer_6D72_Accel_LN_Y_CAL	Shimmer_6D72_Accel_LN_Z_CAL	Shimmer_6D72_Battery_CAL	Shimmer_6D72_ECG_EMG_Status1_CAL	Shimmer_6D72_ECG_EMG_Status2_CAL	Shimmer_6D72_ECG_LA-RA_24BIT_CAL	Shimmer_6D72_ECG_LL-LA_24BIT_CAL	Shimmer_6D72_ECG_LL-RA_24BIT_CAL	Shimmer_6D72_ECG_RESP_24BIT_CAL	Shimmer_6D72_ECG_Vx-RL_24BIT_CAL	Shimmer_6D72_Gyro_X_CAL	Shimmer_6D72_Gyro_Y_CAL	Shimmer_6D72_Gyro_Z_CAL	Shimmer_6D72_Mag_X_CAL	Shimmer_6D72_Mag_Y_CAL	Shimmer_6D72_Mag_Z_CAL	
ms	m/(s^2)	m/(s^2)	m/(s^2)	mV	no_units	no_units	mV	mV	mV	mV	mV	deg/s	deg/s	deg/s	local_flux	local_flux	local_flux	
1.7089476563850645E12	2.543478260869565	-6.358695652173913	3.4782608695652173	3957.5091575091574	128.0	128.0	-0.9806377864644273	28.435827307203688	27.45518952073926	483.07492471634447	566.6880532131258	-1.0076335877862594	6.427480916030534	0.9923664122137404	-0.047976011994003	0.4422788605697151	0.05997001499250375	
1.7089476564045967E12	2.619565217391304	-6.358695652173913	3.391304347826087	3958.974358974359	128.0	128.0	-1.2146003502130926	28.19847502690256	26.983874676689467	483.082785973881	566.9274970206615	0.030534351145038167	2.5801526717557253	0.8244274809160305	-0.03298350824587706	0.4422788605697151	0.07496251874062969	
1.708947656424129E12	2.5	-6.315217391304348	3.7282608695652173	3957.5091575091574	128.0	128.0	-1.2228943375223087	28.434673361143275	27.211779023620966	483.0832187036537	566.7936392776536	-3.129770992366412	7.969465648854961	0.32061068702290074	-0.026986506746626684	0.4287856071964018	0.07346326836581708	
1.7089476564436611E12	2.5217391304347827	-6.391304347826087	3.5652173913043477	3956.043956043956	128.0	128.0	-1.2187834046820885	28.451838308791913	27.233054904109824	483.0819926359645	566.7733730999677	-5.358778625954198	7.9541984732824424	0.564885496183206	-0.05397301349325337	0.4257871064467766	0.07346326836581708	
1.7089476564631936E12	2.5869565217391304	-6.293478260869565	3.467391304347826	3957.5091575091574	128.0	128.0	-1.2192161344547432	28.46734445897871	27.248128324523968	483.080550203389	566.7730846134525	0.07633587786259542	7.908396946564885	1.083969465648855	-0.05397301349325337	0.4407796101949025	0.07946026986506746	
1.7089476564827258E12	2.532608695652174	-6.304347826086956	3.543478260869565	3931.135531135531	128.0	128.0	-1.229313162483354	28.497130691663113	27.26781752917976	483.07405925679916	566.7626269772801	0.5190839694656488	8.6412213740458	1.2671755725190839	-0.04947526236881559	0.4332833583208396	0.07946026986506746	
1.708947656502258E12	2.510869565217391	-6.358695652173913	3.652173913043478	3958.974358974359	128.0	128.0	-1.2167639990763663	28.53795153355021	27.321187534473843	483.0789635275559	566.7482747731536	-4.412213740458015	7.083969465648854	1.1908396946564885	-0.04047976011994003	0.4422788605697151	0.0704647676161919	
1.7089476565217903E12	2.510869565217391	-6.456521739130435	3.5978260869565215	3957.5091575091574	128.0	128.0	-1.2034936193816208	28.540115182413484	27.336621563031862	483.0787471626696	566.7371680423222	-8.67175572519084	6.931297709923664	1.0687022900763359	-0.047976011994003	0.4452773613193403	0.07796101949025487	
1.7089476565413225E12	2.5217391304347827	-6.5	3.5978260869565215	3956.043956043956	128.0	128.0	-1.2009693623744682	28.569396563696454	27.368427201321985	483.0741313784279	566.7395480560718	-7.6183206106870225	6.99236641221374	0.6564885496183206	-0.029985007496251874	0.43478260869565216	0.06746626686656672	
1.7089476565608547E12	2.5543478260869565	-6.510869565217391	3.4130434782608696	3957.5091575091574	128.0	128.0	-1.1729861704094613	28.572786280248916	27.399800109839454	483.0719677295647	566.8007071972737	-3.877862595419847	6.65648854961832	0.6564885496183206	-0.034482758620689655	0.4257871064467766	0.06896551724137931	
1.708947656580387E12	2.5760869565217392	-6.369565217391304	3.4456521739130435	3957.5091575091574	128.0	128.0	-1.152070898064482	28.5528807107068	27.400809812642315	483.0725447025949	566.8183769963238	-0.061068702290076333	6.3969465648854955	0.24427480916030533	-0.038980509745127435	0.44377811094452774	0.07646176911544228	
1.7089476565999192E12	2.5543478260869565	-6.304347826086956	3.4891304347826084	3957.5091575091574	128.0	128.0	-1.1388726399985123	28.57992632149772	27.441053681499206	483.06100524199076	566.8143381851123	0.3053435114503817	6.2748091603053435	0.7175572519083969	-0.041979010494752625	0.43628185907046474	0.08395802098950525	
1.7089476566194514E12	2.5978260869565215	-6.293478260869565	3.5543478260869565	3957.5091575091574	128.0	128.0	-1.1741401164698742	28.6079816350915	27.433841518621627	483.06439495854323	566.7670985182641	-1.465648854961832	7.221374045801526	0.7633587786259541	-0.041979010494752625	0.4287856071964018	0.07946026986506746	
1.7089476566389836E12	2.5760869565217392	-6.315217391304348	3.5652173913043477	3931.135531135531	128.0	128.0	-1.2287361894531477	28.592980336306137	27.36424414685299	483.068001039982	566.7425050428516	-4.259541984732825	7.343511450381679	0.2595419847328244	-0.026986506746626684	0.42278860569715143	0.05547226386806597	
1.7089476566585159E12	2.5543478260869565	-6.358695652173913	3.5978260869565215	3958.974358974359	128.0	128.0	-1.2402756500572742	28.58829243043571	27.348016780378437	483.0704531753604	566.739475934443	-4.8396946564885495	8.778625954198473	0.24427480916030533	-0.034482758620689655	0.43628185907046474	0.07646176911544228	
1.708947656678048E12	2.5978260869565215	-6.380434782608695	3.4782608695652173	3957.5091575091574	128.0	128.0	-1.2551327055850872	28.609928919068448	27.35479621348336	483.07362652702653	566.7427214077379	-2.0	6.824427480916031	0.7480916030534351	-0.047976011994003	0.4422788605697151	0.06746626686656672	
1.7089476566975803E12	2.532608695652174	-6.391304347826087	3.4782608695652173	3956.043956043956	128.0	128.0	-1.2430162719507543	28.626156285543	27.383140013592246	483.0633131341116	566.7350765150877	-1.2061068702290076	7.419847328244274	0.549618320610687	-0.034482758620689655	0.4332833583208396	0.07646176911544228	
1.7089476567171125E12	2.510869565217391	-6.380434782608695	3.5652173913043477	3931.135531135531	128.0	128.0	-1.2275101217639592	28.642311530388778	27.414801408624818	483.0691549860424	566.7208685542189	-2.9923664122137406	6.015267175572519	0.6564885496183206	-0.03298350824587706	0.4422788605697151	0.08095952023988005	
1.7089476567366448E12	2.5543478260869565	-6.391304347826087	3.5978260869565215	3957.5091575091574	128.0	128.0	-1.222461607749654	28.62940175883791	27.406940151088257	483.0718956079359	566.7064442284637	-4.641221374045801	5.755725190839694	0.8244274809160305	-0.046476761619190406	0.4332833583208396	0.06596701649175413	
1.708947656756177E12	2.619565217391304	-6.423913043478261	3.5543478260869565	3957.5091575091574	128.0	128.0	-1.2329913655509193	28.64058061129816	27.40758924574724	483.0634573773691	566.6881253347547	-4.061068702290076	6.946564885496183	0.6412213740458015	-0.026986506746626684	0.4407796101949025	0.07946026986506746	
1.7089476567757092E12	2.630434782608696	-6.423913043478261	3.5217391304347827	3957.5091575091574	128.0	128.0	-1.2425835421780995	28.638777570578764	27.396194028400664	483.06727982369426	566.6897120105878	-3.0534351145038165	7.022900763358779	0.366412213740458	-0.026986506746626684	0.4332833583208396	0.07346326836581708	
1.7089476567952415E12	2.5978260869565215	-6.369565217391304	3.532608695652174	3932.6007326007325	128.0	128.0	-1.2435211233521848	28.663298924362532	27.419777801010348	483.0760065407761	566.6996647953588	-1.4961832061068703	7.145038167938931	0.1984732824427481	-0.04047976011994003	0.424287856071964	0.07496251874062969	
1.7089476568147737E12	2.5760869565217392	-6.380434782608695	3.5652173913043477	3958.974358974359	128.0	128.0	-1.2590272735389798	28.717390145944375	27.458362872405395	483.08271385225225	566.6871156319518	-0.6717557251908397	6.946564885496183	0.564885496183206	-0.026986506746626684	0.4407796101949025	0.07946026986506746	
1.7089476568343062E12	2.5543478260869565	-6.358695652173913	3.5652173913043477	3957.5091575091574	128.0	128.0	-1.2223173644921024	28.769894691693153	27.54757732720105	483.07701624357895	566.652641493397	-1.9236641221374045	7.221374045801526	0.5954198473282443	-0.03298350824587706	0.4452773613193403	0.0704647676161919	
1.7089476568538384E12	2.5543478260869565	-6.33695652173913	3.5978260869565215	3954.5787545787543	128.0	128.0	-1.2092633496836842	28.766216488625588	27.556953138941903	483.07146287816323	566.6508384526776	-3.099236641221374	6.717557251908397	0.7175572519083969	-0.05397301349325337	0.44377811094452774	0.07346326836581708	
1.7089476568733706E12	2.5543478260869565	-6.380434782608695	3.619565217391304	3957.5091575091574	128.0	128.0	-1.2535460297520198	28.64260001690388	27.38905398715186	483.0801174736163	566.6952653760035	-3.969465648854962	6.259541984732824	0.47328244274809156	-0.04947526236881559	0.4332833583208396	0.07346326836581708	
1.7089476568929028E12	2.5543478260869565	-6.391304347826087	3.5652173913043477	3957.5091575091574	128.0	128.0	-1.2477762994499564	28.613751365393565	27.36597506594361	483.07377077028406	566.6898562538453	-4.748091603053435	6.244274809160305	0.2595419847328244	-0.05997001499250375	0.43928035982008995	0.07496251874062969	
1.708947656912435E12	2.5869565217391304	-6.391304347826087	3.5652173913043477	3958.974358974359	128.0	128.0	-1.2733794776653622	28.610505892098654	27.337126414433293	483.06836164812586	566.6938229434279	-4.290076335877862	6.229007633587786	0.6717557251908397	-0.037481259370314844	0.4452773613193403	0.06746626686656672	
1.7089476569319673E12	2.5760869565217392	-6.391304347826087	3.532608695652174	3957.5091575091574	128.0	128.0	-1.4186324380198048	28.641013341070813	27.222380903051008	483.0667749722928	566.74142321842	-2.9770992366412212	6.748091603053435	1.0076335877862594	-0.031484257871064465	0.43628185907046474	0.07346326836581708	
1.7089476569514995E12	2.5543478260869565	-6.369565217391304	3.510869565217391	3931.135531135531	128.0	128.0	-0.5590147446411544	29.39944438927703	28.840429644635876	483.0654767829748	566.7066605933501	-1.3893129770992365	5.984732824427481	1.2671755725190839	-0.04497751124437781	0.43928035982008995	0.0704647676161919	
1.7089476569710317E12	2.5978260869565215	-6.358695652173913	3.5217391304347827	3958.974358974359	128.0	128.0	-0.8424527457300122	28.757489771543714	27.915037025813703	483.06727982369426	566.5047921544066	-0.6106870229007634	5.877862595419847	1.1450381679389312	-0.03298350824587706	0.43478260869565216	0.07496251874062969	
1.708947656990564E12	2.619565217391304	-6.293478260869565	3.402173913043478	3957.5091575091574	128.0	128.0	-1.2333519736947982	28.397891330467623	27.164539356772824	483.0684337697547	566.80092356216	-0.564885496183206	4.045801526717557	1.129770992366412	-0.037481259370314844	0.43178410794602695	0.07796101949025487	
1.7089476570100962E12	2.5652173913043477	-6.293478260869565	3.869565217391304	3954.5787545787543	128.0	128.0	-1.2557096786152935	28.63711877311692	27.381409094501628	483.0704531753604	566.6690852247579	-4.259541984732825	6.076335877862595	0.8702290076335878	-0.046476761619190406	0.44377811094452774	0.06596701649175413	
1.7089476570296284E12	2.5	-6.445652173913043	3.652173913043478	3958.974358974359	128.0	128.0	-1.254483610926105	28.658611018492106	27.404127407566	483.0606446338469	566.649107533587	-7.816793893129771	7.114503816793893	0.732824427480916	-0.03298350824587706	0.4452773613193403	0.05997001499250375	
1.7089476570491606E12	2.641304347826087	-6.369565217391304	3.3804347826086953	3958.974358974359	128.0	128.0	-1.2482090292226111	28.673828682163798	27.425619652941187	483.0648998099446	566.6452850872619	-0.10687022900763359	6.900763358778626	1.2366412213740459	-0.05397301349325337	0.43628185907046474	0.07346326836581708	
1.7089476570686929E12	2.5543478260869565	-6.260869565217391	3.6739130434782608	3939.9267399267396	128.0	128.0	-1.2474878129348532	28.709817374922917	27.462329561988064	483.06720770206545	566.6436984114288	3.16030534351145	8.290076335877862	0.9312977099236641	-0.04497751124437781	0.424287856071964	0.0704647676161919	
1.708947657088225E12	2.5652173913043477	-6.369565217391304	3.5543478260869565	3958.974358974359	128.0	128.0	-1.244170218011167	28.746599405598573	27.502429187587406	483.06482768831586	566.6252352744622	-5.938931297709924	6.137404580152672	1.1755725190839694	-0.034482758620689655	0.4257871064467766	0.07346326836581708	
1.7089476571077573E12	2.532608695652174	-6.434782608695652	3.641304347826087	3932.6007326007325	128.0	128.0	-1.245468407329131	28.758210987831475	27.512742580502344	483.0623034313087	566.6104503405631	-8.351145038167939	6.366412213740458	1.5114503816793892	-0.03298350824587706	0.43178410794602695	0.06746626686656672	
1.7089476571272896E12	2.5543478260869565	-6.445652173913043	3.6739130434782608	3960.43956043956	128.0	128.0	-1.2251301080143582	28.760735244838628	27.53560513682427	483.05775976869586	566.6075654754121	-6.381679389312977	6.931297709923664	1.3129770992366412	-0.03298350824587706	0.4422788605697151	0.08095952023988005	
1.7089476571468218E12	2.5760869565217392	-6.467391304347826	3.5	3958.974358974359	128.0	128.0	-1.2052966601010158	28.769894691693153	27.564598031592137	483.06028402570297	566.658771831843	-5.480916030534351	6.229007633587786	1.3129770992366412	-0.022488755622188904	0.43478260869565216	0.0704647676161919	
1.708947657166354E12	2.5652173913043477	-6.423913043478261	3.4891304347826084	3953.113553113553	128.0	128.0	-1.185535333816449	28.749772757264708	27.564237423448258	483.06223130967993	566.6937508217992	-5.1603053435114505	6.3969465648854955	0.732824427480916	-0.029985007496251874	0.4497751124437781	0.06746626686656672	
1.7089476571858862E12	2.5543478260869565	-6.391304347826087	3.5652173913043477	3958.974358974359	128.0	128.0	-1.1594273041996128	28.782011125327486	27.622583821127872	483.0573270389232	566.7132957831974	-2.2442748091603053	6.290076335877862	1.0229007633587786	-0.037481259370314844	0.43178410794602695	0.06746626686656672	
1.7089476572054187E12	2.5760869565217392	-6.326086956521739	3.543478260869565	3958.974358974359	128.0	128.0	-1.1827225902941931	28.804152465361653	27.62142987506746	483.05646157937787	566.6902168619891	-0.13740458015267176	7.129770992366412	1.099236641221374	-0.04047976011994003	0.43928035982008995	0.0704647676161919	
1.708947657224951E12	2.5869565217391304	-6.315217391304348	3.641304347826087	3957.5091575091574	128.0	128.0	-1.2353713793005203	28.784751747220966	27.549380367920445	483.0576155254383	566.6604306293048	-2.015267175572519	7.435114503816793	0.9465648854961831	-0.047976011994003	0.43478260869565216	0.07796101949025487	
1.7089476572444832E12	2.532608695652174	-6.4021739130434785	3.608695652173913	3958.974358974359	128.0	128.0	-1.2388332174817585	28.751287311469	27.51245409398724	483.0527112546815	566.6496123849884	-4.534351145038168	7.6183206106870225	0.8702290076335878	-0.034482758620689655	0.4332833583208396	0.06596701649175413	
1.7089476572640154E12	2.5652173913043477	-6.33695652173913	3.5978260869565215	3932.6007326007325	128.0	128.0	-1.2477041778211806	28.749844878893484	27.502140701072303	483.0524948897952	566.6454293305194	-3.2213740458015265	6.595419847328244	0.9770992366412213	-0.05997001499250375	0.43178410794602695	0.06746626686656672	
1.7089476572835476E12	2.5652173913043477	-6.358695652173913	3.5543478260869565	3958.974358974359	128.0	128.0	-1.2402035284284985	28.768452259117637	27.52824873068914	483.0542979305146	566.6520645203668	-1.114503816793893	7.419847328244274	1.2519083969465647	-0.029985007496251874	0.4422788605697151	0.06746626686656672	
1.7089476573030798E12	2.532608695652174	-6.304347826086956	3.6304347826086953	3958.974358974359	128.0	128.0	-1.245179920814028	28.79066572078058	27.545485799966553	483.0480233488111	566.6558869666919	-3.541984732824427	7.603053435114504	1.0229007633587786	-0.037481259370314844	0.4422788605697151	0.0704647676161919	
1.708947657322612E12	2.510869565217391	-6.4021739130434785	3.5978260869565215	3953.113553113553	128.0	128.0	-1.23760714979257	28.78879055843241	27.55118340863984	483.0537209574844	566.6537954394574	-5.770992366412213	6.6106870229007635	1.2519083969465647	-0.031484257871064465	0.4332833583208396	0.06896551724137931	
1.7089476573421443E12	2.5217391304347827	-6.413043478260869	3.619565217391304	3958.974358974359	128.0	128.0	-1.218278553280658	28.779126260176454	27.560847706895796	483.0528554979391	566.6349716943469	-6.183206106870228	7.022900763358779	1.2061068702290076	-0.04497751124437781	0.4422788605697151	0.07796101949025487	
1.7089476573616765E12	2.5978260869565215	-6.4021739130434785	3.5543478260869565	3957.5091575091574	128.0	128.0	-1.2306113518013182	28.792108153356097	27.561496801554778	483.05797613358214	566.6266777070377	-7.145038167938931	6.595419847328244	1.3129770992366412	-0.041979010494752625	0.4332833583208396	0.06896551724137931	
1.7089476573812087E12	2.5978260869565215	-6.391304347826087	3.5543478260869565	3957.5091575091574	128.0	128.0	-1.2242646484690487	28.783742044418105	27.559477395949056	483.0558124847189	566.6036709074582	-6.778625954198473	7.816793893129771	0.6564885496183206	-0.04047976011994003	0.4452773613193403	0.07796101949025487	
1.708947657400741E12	2.5869565217391304	-6.369565217391304	3.5543478260869565	3957.5091575091574	128.0	128.0	-1.2452520424428037	28.87598560762234	27.630733565179536	483.0540094439995	566.6205473685917	-4.198473282442748	7.908396946564885	0.8091603053435115	-0.037481259370314844	0.43178410794602695	0.07496251874062969	
1.7089476574202732E12	2.5217391304347827	-6.358695652173913	3.5760869565217392	3932.6007326007325	128.0	128.0	-1.2204422021439316	28.899713623489575	27.679271421345643	483.0505476058183	566.6036709074582	-2.763358778625954	7.786259541984733	0.8854961832061068	-0.041979010494752625	0.44377811094452774	0.07646176911544228	
1.7089476574398054E12	2.5217391304347827	-6.369565217391304	3.5760869565217392	3958.974358974359	128.0	128.0	-1.20659484941898	28.92106162560721	27.714466776188228	483.0590579580138	566.5899677979908	-4.045801526717557	7.7251908396946565	0.7633587786259541	-0.05247376311844078	0.42728635682158916	0.0704647676161919	
1.7089476574593376E12	2.510869565217391	-6.4021739130434785	3.543478260869565	3958.974358974359	128.0	128.0	-1.2174852153641242	28.812157966155766	27.59467275079164	483.0478069839248	566.6258843691212	-5.511450381679389	8.030534351145038	1.2366412213740459	-0.041979010494752625	0.4407796101949025	0.06596701649175413	
1.7089476574788699E12	2.5217391304347827	-6.391304347826087	3.532608695652174	3951.6483516483513	128.0	128.0	-1.2317652978617308	28.78504023373607	27.553274935874338	483.0504033625607	566.6270383151816	-6.0	7.465648854961832	0.9007633587786259	-0.037481259370314844	0.43928035982008995	0.07796101949025487	
1.708947657498402E12	2.543478260869565	-6.4021739130434785	3.5543478260869565	3958.974358974359	128.0	128.0	-1.232053784376834	28.75878796086168	27.526734176484847	483.0558124847189	566.6609354807061	-4.8396946564885495	7.1603053435114505	0.7938931297709924	-0.046476761619190406	0.4332833583208396	0.06146926536731634	
1.7089476575179343E12	2.5217391304347827	-6.4021739130434785	3.543478260869565	3957.5091575091574	128.0	128.0	-1.3541557018942478	28.763115258588225	27.40895955669398	483.0519900383938	566.6721143331664	-5.770992366412213	7.404580152671755	1.114503816793893	-0.047976011994003	0.4197901049475262	0.05997001499250375	
1.7089476575374666E12	2.543478260869565	-6.391304347826087	3.510869565217391	3957.5091575091574	128.0	128.0	-0.915944685452543	29.3214809085704	28.405536223117856	483.05321610608297	566.7223831084232	-6.061068702290076	7.221374045801526	1.1450381679389312	-0.034482758620689655	0.4332833583208396	0.07646176911544228	
1.7089476575569988E12	2.532608695652174	-6.4021739130434785	3.4565217391304346	3957.5091575091574	128.0	128.0	-0.369551225847152	29.17254974514839	28.80299851930124	483.0506918490758	566.5966029878382	-5.267175572519084	7.068702290076335	1.1755725190839694	-0.038980509745127435	0.41529235382308843	0.07646176911544228	
1.708947657576531E12	2.532608695652174	-6.326086956521739	3.369565217391304	3934.065934065934	128.0	128.0	-1.0209537769500945	28.50261193545007	27.481658158499975	483.0534324709693	566.6964914436927	-2.3053435114503817	7.419847328244274	1.282442748091603	-0.05247376311844078	0.43478260869565216	0.08095952023988005	
1.7089476575960635E12	2.608695652173913	-6.326086956521739	3.510869565217391	3958.974358974359	128.0	128.0	-1.2270773919913045	28.742632716015905	27.5155553240246	483.05646157937787	566.6294183289311	-2.4122137404580153	2.229007633587786	0.6259541984732824	-0.04047976011994003	0.43478260869565216	0.06746626686656672	
1.7089476576155957E12	2.4565217391304346	-6.391304347826087	3.75	3958.974358974359	128.0	128.0	-1.2257070810445645	28.78229961184259	27.556592530798024	483.05545187657503	566.5741010396601	-9.297709923664122	8.763358778625953	-0.13740458015267176	-0.031484257871064465	0.43628185907046474	0.06896551724137931	
1.708947657635128E12	2.5543478260869565	-6.380434782608695	3.293478260869565	3951.6483516483513	128.0	128.0	-1.213807012296559	28.772418948700306	27.558611936403747	483.051268822106	566.5685476742444	-8.381679389312977	7.083969465648854	0.8702290076335878	-0.04497751124437781	0.424287856071964	0.07496251874062969	
1.7089476576546602E12	2.5760869565217392	-6.315217391304348	3.467391304347826	3958.974358974359	128.0	128.0	-1.2303949869149908	28.80386397884655	27.57346899193156	483.051917916765	566.571576782653	-1.0534351145038168	8.183206106870228	1.0534351145038168	-0.034482758620689655	0.43628185907046474	0.07346326836581708	
1.7089476576741924E12	2.5217391304347827	-6.369565217391304	3.4565217391304346	3958.974358974359	128.0	128.0	-1.2229664591510845	28.840790252779755	27.61782379362867	483.0471578892658	566.5847750407189	-4.9465648854961835	8.106870229007633	0.8702290076335878	-0.04047976011994003	0.43478260869565216	0.0704647676161919	
1.7089476576937246E12	2.510869565217391	-6.5	3.434782608695652	3956.043956043956	128.0	128.0	-1.2198652291137253	28.862354619783716	27.64248939066999	483.0420372536227	566.5521039428835	-9.633587786259541	5.83206106870229	1.0229007633587786	-0.034482758620689655	0.4482758620689655	0.06896551724137931	
1.7089476577132568E12	2.5	-6.5	3.510869565217391	3958.974358974359	128.0	128.0	-1.2115712418045095	28.87173043152457	27.66015918972006	483.0372051044947	566.5401317525068	-7.816793893129771	6.3969465648854955	0.8702290076335878	-0.04497751124437781	0.424287856071964	0.07496251874062969	
1.708947657732789E12	2.5543478260869565	-6.489130434782608	3.402173913043478	3931.135531135531	128.0	128.0	-1.20933547131246	28.869711025918846	27.660375554606386	483.0451384836601	566.5769137831824	-5.129770992366412	5.740458015267175	1.3740458015267174	-0.022488755622188904	0.43478260869565216	0.08095952023988005	
1.7089476577523213E12	2.5869565217391304	-6.445652173913043	3.3478260869565215	3958.974358974359	128.0	128.0	-1.1861123068466553	28.84893999683142	27.662827689984763	483.04694152437946	566.6136236922292	-5.312977099236641	5.786259541984733	0.8854961832061068	-0.034482758620689655	0.4332833583208396	0.07646176911544228	
1.7089476577718535E12	2.543478260869565	-6.445652173913043	3.402173913043478	3958.974358974359	128.0	128.0	-1.1564703174198052	28.837184171340965	27.68071385392116	483.0445615106299	566.6654070216903	-4.748091603053435	6.183206106870228	0.4427480916030534	-0.037481259370314844	0.43478260869565216	0.07796101949025487	
1.7089476577913857E12	2.5760869565217392	-6.4021739130434785	3.3804347826086953	3950.18315018315	128.0	128.0	-1.15005149245876	28.85528670016369	27.705235207704927	483.04816759206864	566.6530021015409	-2.610687022900763	6.641221374045801	0.6412213740458015	-0.04497751124437781	0.43478260869565216	0.06746626686656672	
1.708947657810918E12	2.5869565217391304	-6.369565217391304	3.434782608695652	3958.974358974359	128.0	128.0	-1.1893577801415658	28.857955200428393	27.668597420286826	483.05263913305276	566.6315098561656	-1.4045801526717556	7.206106870229007	0.732824427480916	-0.026986506746626684	0.4332833583208396	0.07346326836581708	
1.7089476578304502E12	2.543478260869565	-6.358695652173913	3.391304347826087	3956.043956043956	128.0	128.0	-1.2021954300636566	28.84021327974955	27.63801784968589	483.0533603493405	566.6118927731386	-2.946564885496183	7.145038167938931	0.5190839694656488	-0.05997001499250375	0.43478260869565216	0.07796101949025487	
1.7089476578499824E12	2.543478260869565	-6.391304347826087	3.467391304347826	3956.043956043956	128.0	128.0	-1.205585146616119	28.82513985933541	27.61955471271929	483.0436239294558	566.6150661248048	-3.145038167938931	6.442748091603053	0.5343511450381679	-0.04947526236881559	0.43628185907046474	0.07346326836581708	
1.7089476578695146E12	2.5543478260869565	-6.380434782608695	3.358695652173913	3957.5091575091574	128.0	128.0	-1.1970026727917997	28.809777952406165	27.612775279614365	483.04081118593353	566.6126139894264	-2.564885496183206	5.816793893129771	0.7938931297709924	-0.038980509745127435	0.4287856071964018	0.08695652173913043	
1.7089476578890469E12	2.5543478260869565	-6.380434782608695	3.4456521739130435	3932.6007326007325	128.0	128.0	-1.2022675516924324	28.819730737177224	27.61746318548479	483.0416045238501	566.6044642453747	-2.931297709923664	7.145038167938931	0.9465648854961831	-0.046476761619190406	0.44377811094452774	0.07946026986506746	
1.708947657908579E12	2.5652173913043477	-6.445652173913043	3.358695652173913	3958.974358974359	128.0	128.0	-1.1983729837385397	28.83711204971219	27.63873906597365	483.0387917803278	566.589246581703	-4.458015267175572	6.351145038167939	0.8549618320610687	-0.037481259370314844	0.4452773613193403	0.07496251874062969	
1.7089476579281113E12	2.5217391304347827	-6.423913043478261	3.4565217391304346	3958.974358974359	128.0	128.0	-1.1990942000262976	28.843819361188338	27.64472516116204	483.0470136460082	566.571576782653	-3.6946564885496183	6.900763358778626	0.5801526717557252	-0.031484257871064465	0.4482758620689655	0.07346326836581708	
1.7089476579476436E12	2.5543478260869565	-6.413043478260869	3.434782608695652	3951.6483516483513	128.0	128.0	-1.2056572682448947	28.851752740353675	27.64609547210878	483.0480233488111	566.5751828640917	-3.114503816793893	6.671755725190839	0.5801526717557252	-0.04947526236881559	0.4257871064467766	0.07346326836581708	
1.708947657967176E12	2.5652173913043477	-6.423913043478261	3.4239130434782608	3958.974358974359	128.0	128.0	-1.2009693623744682	28.841078739294858	27.64010937692039	483.0449942404025	566.5688361607595	-4.213740458015267	7.038167938931298	0.8244274809160305	-0.03298350824587706	0.43478260869565216	0.07496251874062969	
1.7089476579867083E12	2.5543478260869565	-6.434782608695652	3.434782608695652	3958.974358974359	128.0	128.0	-1.2201537156288285	28.921422233751088	27.70126851812226	483.03980148313065	566.5689082823883	-3.7862595419847325	7.358778625954198	0.9465648854961831	-0.04497751124437781	0.43178410794602695	0.08095952023988005	
1.7089476580062405E12	2.5543478260869565	-6.391304347826087	3.358695652173913	3957.5091575091574	128.0	128.0	-1.20522453847224	28.943779938671586	27.738555400199346	483.04283059153926	566.5775628778414	-2.4122137404580153	7.450381679389313	0.6259541984732824	-0.047976011994003	0.43928035982008995	0.07796101949025487	
1.7089476580257727E12	2.543478260869565	-6.3478260869565215	3.467391304347826	3957.5091575091574	128.0	128.0	-1.1741401164698742	28.94904481757222	27.774904701102344	483.0458596999478	566.5649415928057	-1.4351145038167938	7.190839694656488	0.8549618320610687	-0.05247376311844078	0.42728635682158916	0.0704647676161919	
1.708947658045305E12	2.5543478260869565	-6.380434782608695	3.4130434782608696	3932.6007326007325	128.0	128.0	-1.1643315749563665	28.90634881333695	27.742017238380583	483.04254210502415	566.5937181226872	-2.8854961832061066	6.870229007633587	0.9770992366412213	-0.04947526236881559	0.4332833583208396	0.06596701649175413	
1.7089476580648372E12	2.543478260869565	-6.391304347826087	3.4565217391304346	3958.974358974359	128.0	128.0	-1.1904396045732029	28.812157966155766	27.621718361582563	483.03958511824436	566.5829719999996	-4.244274809160305	7.099236641221374	0.9923664122137404	-0.041979010494752625	0.44377811094452774	0.06596701649175413	
1.7089476580843694E12	2.543478260869565	-6.423913043478261	3.402173913043478	3957.5091575091574	128.0	128.0	-1.199310564912625	28.791098450553235	27.59178788564061	483.0396572398731	566.5640761332603	-4.3206106870229	7.145038167938931	0.8091603053435115	-0.037481259370314844	0.43178410794602695	0.07496251874062969	
1.7089476581039016E12	2.5543478260869565	-6.434782608695652	3.4239130434782608	3950.18315018315	128.0	128.0	-1.219648864227398	28.78006384135054	27.56041497712314	483.0332384149121	566.5624894574272	-3.4351145038167936	7.145038167938931	0.6870229007633587	-0.04497751124437781	0.424287856071964	0.0704647676161919	
1.7089476581234338E12	2.532608695652174	-6.423913043478261	3.467391304347826	3957.5091575091574	128.0	128.0	-1.203782105896724	29.025637987332107	27.821855881435383	483.0405948210472	566.6391547488159	-3.2213740458015265	7.190839694656488	0.7938931297709924	-0.04497751124437781	0.43478260869565216	0.07796101949025487	
1.708947658142966E12	2.532608695652174	-6.4021739130434785	3.3804347826086953	3957.5091575091574	128.0	128.0	-0.40438597254585895	29.523060860998736	29.118674888452876	483.03922451010044	566.6446359926028	-2.854961832061069	7.465648854961832	0.9770992366412213	-0.034482758620689655	0.4407796101949025	0.06896551724137931	
1.7089476581624983E12	2.5217391304347827	-6.380434782608695	3.3804347826086953	3957.5091575091574	128.0	128.0	-0.6455606991721033	28.73448297196424	28.088922272792136	483.04751849740967	566.4932526938024	-1.3893129770992365	7.465648854961832	0.8854961832061068	-0.047976011994003	0.4422788605697151	0.0704647676161919	
1.7089476581820305E12	2.619565217391304	-6.3478260869565215	3.260869565217391	3958.974358974359	128.0	128.0	-1.1876989826797226	28.696763360114502	27.50906437743478	483.0437681727133	566.6858174426338	-1.1908396946564885	4.8396946564885495	0.6412213740458015	-0.06596701649175413	0.4332833583208396	0.06896551724137931	
1.7089476582015627E12	2.4565217391304346	-6.293478260869565	3.7717391304347827	3934.065934065934	128.0	128.0	-1.1913771857472881	28.782515976728916	27.591138790981628	483.0408833075623	566.6018678667389	-4.702290076335878	9.755725190839694	0.9618320610687022	-0.04497751124437781	0.43928035982008995	0.07496251874062969	
1.708947658221095E12	2.5543478260869565	-6.445652173913043	3.3152173913043477	3958.974358974359	128.0	128.0	-1.1940456860119923	28.78280446324402	27.588758777232027	483.03987360475946	566.5748943775767	-8.6412213740458	6.1679389312977095	1.297709923664122	-0.041979010494752625	0.42278860569715143	0.08995502248875561	
1.7089476582406272E12	2.543478260869565	-6.358695652173913	3.402173913043478	3958.974358974359	128.0	128.0	-1.1980844972234366	28.78568932839505	27.587604831171614	483.0343923609725	566.5640761332603	-2.5038167938931295	8.702290076335878	1.129770992366412	-0.029985007496251874	0.43178410794602695	0.06746626686656672	
1.7089476582601594E12	2.510869565217391	-6.33695652173913	3.4130434782608696	3950.18315018315	128.0	128.0	-1.2054409033585674	28.818865277631915	27.613424374273347	483.03893602358534	566.570927687994	-0.564885496183206	8.183206106870228	1.2671755725190839	-0.046476761619190406	0.4407796101949025	0.06896551724137931	
1.7089476582796917E12	2.5217391304347827	-6.456521739130435	3.4130434782608696	3957.5091575091574	128.0	128.0	-1.1895020233991176	28.835958103651777	27.64645608025266	483.0348972123739	566.5426560095138	-6.65648854961832	6.366412213740458	1.282442748091603	-0.04047976011994003	0.43928035982008995	0.06446776611694152	
1.7089476582992239E12	2.510869565217391	-6.510869565217391	3.4239130434782608	3957.5091575091574	128.0	128.0	-1.190367482944427	28.857594592284514	27.667227109340086	483.0387917803278	566.5343620222047	-8.595419847328245	6.045801526717557	1.129770992366412	-0.038980509745127435	0.4407796101949025	0.07946026986506746	
1.708947658318756E12	2.5543478260869565	-6.478260869565217	3.358695652173913	3956.043956043956	128.0	128.0	-1.1722649541217034	28.858243686943496	27.68597873282179	483.03864753707023	566.5539069836029	-4.916030534351145	5.908396946564885	1.4198473282442747	-0.04047976011994003	0.4422788605697151	0.08545727136431784	
1.7089476583382886E12	2.5652173913043477	-6.445652173913043	3.3043478260869565	3957.5091575091574	128.0	128.0	-1.1623121693506444	28.84410784770344	27.681795678352795	483.0343923609725	566.6001369476483	-3.282442748091603	5.709923664122138	1.1755725190839694	-0.047976011994003	0.4422788605697151	0.07496251874062969	
1.7089476583578208E12	2.5652173913043477	-6.413043478260869	3.358695652173913	3931.135531135531	128.0	128.0	-1.1453635865883336	28.825211980964184	27.67984839437585	483.0357626719192	566.6775955769534	-2.4427480916030535	6.091603053435114	0.2900763358778626	-0.029985007496251874	0.43928035982008995	0.07496251874062969	
1.708947658377353E12	2.5543478260869565	-6.391304347826087	3.3478260869565215	3958.974358974359	128.0	128.0	-1.1155052322751562	28.833073238500745	27.717568006225587	483.0376378342674	566.6717537250225	-2.198473282442748	6.5038167938931295	0.41221374045801523	-0.031484257871064465	0.4482758620689655	0.07346326836581708	
1.7089476583968853E12	2.5543478260869565	-6.380434782608695	3.434782608695652	3957.5091575091574	128.0	128.0	-1.1412526537481134	28.856368524595325	27.71511587084721	483.0298486983596	566.6412462760504	-1.4809160305343512	6.65648854961832	0.4427480916030534	-0.038980509745127435	0.43628185907046474	0.07646176911544228	
1.7089476584164175E12	2.5543478260869565	-6.3478260869565215	3.402173913043478	3950.18315018315	128.0	128.0	-1.1664952238196402	28.83264050872809	27.66614528490845	483.0245116978302	566.6204031253342	-2.3206106870229006	6.3969465648854955	0.5343511450381679	-0.05247376311844078	0.43478260869565216	0.08095952023988005	
1.7089476584359497E12	2.5217391304347827	-6.413043478260869	3.358695652173913	3958.974358974359	128.0	128.0	-1.1697406971145508	28.80249366789981	27.63275297078526	483.0350414556315	566.5842701893175	-3.49618320610687	6.3969465648854955	0.5190839694656488	-0.037481259370314844	0.43928035982008995	0.08545727136431784	
1.708947658455482E12	2.510869565217391	-6.358695652173913	3.4239130434782608	3958.974358974359	128.0	128.0	-1.162095804464317	28.79600272130999	27.63390691684567	483.0356184286617	566.5746058910615	-2.3664122137404577	6.122137404580153	0.3511450381679389	-0.041979010494752625	0.4407796101949025	0.06896551724137931	
1.7089476584750142E12	2.532608695652174	-6.358695652173913	3.402173913043478	3957.5091575091574	128.0	128.0	-1.1709667648037392	28.810931898466578	27.639965133662837	483.0326614418819	566.5678985795854	-1.7709923664122136	5.938931297709924	0.9007633587786259	-0.04947526236881559	0.43628185907046474	0.06596701649175413	
1.7089476584945464E12	2.5543478260869565	-6.4021739130434785	3.402173913043478	3957.5091575091574	128.0	128.0	-1.1750776976439594	28.83177504918278	27.65669735153882	483.03475296911637	566.5797986483334	-2.900763358778626	7.068702290076335	0.5343511450381679	-0.04497751124437781	0.4422788605697151	0.07796101949025487	
1.7089476585140786E12	2.5543478260869565	-6.445652173913043	3.391304347826087	3932.6007326007325	128.0	128.0	-1.1828668335517447	28.83026049497849	27.647393661426744	483.03129113093513	566.5559263892086	-4.183206106870228	6.412213740458015	0.6564885496183206	-0.04047976011994003	0.4197901049475262	0.08545727136431784	
1.7089476585336108E12	2.5652173913043477	-6.423913043478261	3.4130434782608696	3958.974358974359	128.0	128.0	-1.1711831296900665	28.822615602328256	27.651432472638188	483.0341038744574	566.5534742538302	-3.5725190839694654	6.961832061068702	1.114503816793893	-0.038980509745127435	0.4332833583208396	0.07946026986506746	
1.708947658553143E12	2.5543478260869565	-6.423913043478261	3.4130434782608696	3956.043956043956	128.0	128.0	-1.1718322243490487	28.838193874143826	27.666361649794776	483.0343202393437	566.551959699626	-3.7251908396946565	6.625954198473282	0.9007633587786259	-0.034482758620689655	0.4257871064467766	0.06896551724137931	
1.7089476585726753E12	2.5652173913043477	-6.434782608695652	3.4130434782608696	3948.7179487179483	128.0	128.0	-1.17695285999213	28.83761690111362	27.66066404112149	483.0356184286617	566.5803034997349	-3.0534351145038165	7.221374045801526	0.5038167938931297	-0.03298350824587706	0.43928035982008995	0.07496251874062969	
1.7089476585922075E12	2.5543478260869565	-6.4021739130434785	3.4130434782608696	3958.974358974359	128.0	128.0	-1.1750055760151836	28.881538973038076	27.70653339702289	483.02948809021575	566.5768416615537	-2.687022900763359	7.206106870229007	0.564885496183206	-0.034482758620689655	0.4257871064467766	0.07346326836581708	
1.7089476586117397E12	2.5543478260869565	-6.369565217391304	3.402173913043478	3957.5091575091574	128.0	128.0	-1.164836426357797	28.893727528301184	27.728891101943386	483.0273965629812	566.5955211634066	-1.4961832061068703	7.190839694656488	0.38167938931297707	-0.034482758620689655	0.4257871064467766	0.05847076461769115	
1.708947658631272E12	2.5760869565217392	-6.380434782608695	3.434782608695652	3956.043956043956	128.0	128.0	-1.1419738700358713	28.936423532536455	27.794449662500583	483.0242953329439	566.5753271073494	-2.381679389312977	6.99236641221374	0.549618320610687	-0.038980509745127435	0.4482758620689655	0.07646176911544228	
1.7089476586508042E12	2.532608695652174	-6.369565217391304	3.4456521739130435	3951.6483516483513	128.0	128.0	-1.1270446928792826	28.871297701751914	27.744253008872633	483.0339596311998	566.5901841628771	-3.3740458015267176	6.763358778625954	0.5038167938931297	-0.04497751124437781	0.43478260869565216	0.06746626686656672	
1.7089476586703364E12	2.532608695652174	-6.4021739130434785	3.434782608695652	3934.065934065934	128.0	128.0	-1.170317670144757	28.77234682707153	27.602029156926772	483.03814268566884	566.5861453516657	-3.7251908396946565	6.65648854961832	0.21374045801526717	-0.037481259370314844	0.43928035982008995	0.08095952023988005	
1.7089476586898687E12	2.543478260869565	-6.413043478260869	3.434782608695652	3958.974358974359	128.0	128.0	-1.1654855210167792	28.7491957842345	27.58371026321772	483.036483888207	566.5916265954527	-3.480916030534351	6.900763358778626	0.7175572519083969	-0.041979010494752625	0.4482758620689655	0.07646176911544228	
1.7089476587094011E12	2.5652173913043477	-6.391304347826087	3.4239130434782608	3957.5091575091574	128.0	128.0	-1.2891741143672604	28.772418948700302	27.483244834333043	483.0343923609725	566.6148497599185	-3.6030534351145036	6.519083969465648	0.7022900763358778	-0.047976011994003	0.42728635682158916	0.08095952023988005	
1.7089476587289333E12	2.5652173913043477	-6.4021739130434785	3.4239130434782608	3948.7179487179483	128.0	128.0	-1.1736352650684434	28.977677104196207	27.804041839127763	483.03799844241126	566.6612960888501	-3.114503816793893	6.641221374045801	0.8091603053435115	-0.038980509745127435	0.4287856071964018	0.08395802098950525	
1.7089476587484656E12	2.5543478260869565	-6.434782608695652	3.402173913043478	3931.135531135531	128.0	128.0	-0.2428335240880876	29.044029002669934	28.801195478581846	483.03922451010044	566.5939344875735	-3.16030534351145	6.8396946564885495	0.6412213740458015	-0.04047976011994003	0.42728635682158916	0.07796101949025487	
1.7089476587679978E12	2.5652173913043477	-6.391304347826087	3.358695652173913	3957.5091575091574	128.0	128.0	-0.9371484443126256	28.45472317394295	27.517574729630322	483.04109967244864	566.6710325087348	-2.3053435114503817	7.32824427480916	1.0381679389312977	-0.037481259370314844	0.43478260869565216	0.06746626686656672	
1.70894765878753E12	2.619565217391304	-6.380434782608695	3.3804347826086953	3956.043956043956	128.0	128.0	-1.1513496817767241	28.65038915281167	27.499039471034944	483.0339596311998	566.6683640084701	-1.7557251908396947	4.122137404580153	0.6412213740458015	-0.0239880059970015	0.4257871064467766	0.08395802098950525	
1.7089476588070623E12	2.4891304347826084	-6.380434782608695	3.5869565217391304	3958.974358974359	128.0	128.0	-1.1528642359810157	28.74941214912083	27.596547913139812	483.0372051044947	566.5978290555274	-5.083969465648854	9.465648854961831	0.4427480916030534	-0.034482758620689655	0.4407796101949025	0.08395802098950525	
1.7089476588265945E12	2.5978260869565215	-6.4021739130434785	3.3260869565217392	3934.065934065934	128.0	128.0	-1.14594055961854	28.743353932303663	27.59741337268512	483.04405665922843	566.5737404315163	-7.49618320610687	5.969465648854961	0.8854961832061068	-0.037481259370314844	0.43928035982008995	0.08845577211394302	
1.7089476588461267E12	2.5869565217391304	-6.315217391304348	3.391304347826087	3931.135531135531	128.0	128.0	-1.164547939842694	28.773140164988064	27.60859222514537	483.0333826581696	566.5684755526156	-1.2213740458015268	8.458015267175572	1.0381679389312977	-0.022488755622188904	0.43178410794602695	0.06746626686656672	
1.708947658865659E12	2.5543478260869565	-6.33695652173913	3.4456521739130435	3958.974358974359	128.0	128.0	-1.1646200614714697	28.79528150502223	27.63066144355076	483.0387917803278	566.5658070523509	-1.1755725190839694	7.435114503816793	0.9770992366412213	-0.04047976011994003	0.43478260869565216	0.07496251874062969	
1.7089476588851912E12	2.5217391304347827	-6.467391304347826	3.4130434782608696	3950.18315018315	128.0	128.0	-1.1494745194285536	28.817494966685175	27.66802044725662	483.02999294161714	566.5555657810647	-6.8396946564885495	6.366412213740458	1.1450381679389312	-0.046476761619190406	0.43628185907046474	0.07946026986506746	
1.7089476589047234E12	2.510869565217391	-6.489130434782608	3.4239130434782608	3957.5091575091574	128.0	128.0	-1.1457241947322125	28.824635007933978	27.678910813201764	483.0315074958215	566.5492190777325	-7.267175572519084	6.412213740458015	0.9465648854961831	-0.04947526236881559	0.41079460269865065	0.08395802098950525	
1.7089476589242556E12	2.5760869565217392	-6.467391304347826	3.3804347826086953	3958.974358974359	128.0	128.0	-1.1349059504158439	28.825933197251942	27.691027246836097	483.02999294161714	566.5749664992054	-4.152671755725191	6.122137404580153	1.2671755725190839	-0.04947526236881559	0.43628185907046474	0.07646176911544228	
1.7089476589437878E12	2.5869565217391304	-6.423913043478261	3.282608695652174	3957.5091575091574	128.0	128.0	-1.1051197177314422	28.80141184346817	27.69629212573673	483.0276850494963	566.6385777757857	-3.4351145038167936	6.198473282442748	0.8854961832061068	-0.04497751124437781	0.43478260869565216	0.07796101949025487	
1.70894765896332E12	2.5652173913043477	-6.4021739130434785	3.3478260869565215	3957.5091575091574	128.0	128.0	-1.0897578108021988	28.779198381805227	27.68944057100303	483.02191531919425	566.6555984801768	-2.198473282442748	7.9541984732824424	0.6717557251908397	-0.046476761619190406	0.4287856071964018	0.07346326836581708	
1.7089476589828523E12	2.5760869565217392	-6.369565217391304	3.402173913043478	3931.135531135531	128.0	128.0	-1.0840602021289114	28.81872103437436	27.73466083224545	483.0304977930186	566.6507663310488	-0.8854961832061068	8.50381679389313	0.9923664122137404	-0.038980509745127435	0.42278860569715143	0.07646176911544228	
1.7089476590023845E12	2.5652173913043477	-6.3478260869565215	3.4782608695652173	3958.974358974359	128.0	128.0	-1.1174525162521025	28.820379831836206	27.702927315584102	483.0276850494963	566.6144891517746	0.42748091603053434	9.206106870229007	1.5877862595419847	-0.047976011994003	0.43178410794602695	0.07496251874062969	
1.7089476590219167E12	2.510869565217391	-6.380434782608695	3.434782608695652	3958.974358974359	128.0	128.0	-1.1380793020819786	28.7923966398712	27.65431733778922	483.03186810396534	566.5937181226872	-1.7404580152671756	9.16030534351145	1.4198473282442747	-0.031484257871064465	0.4257871064467766	0.08695652173913043	
1.708947659041449E12	2.532608695652174	-6.380434782608695	3.4782608695652173	3948.7179487179483	128.0	128.0	-1.1346895855295165	28.787997220515877	27.65330763498636	483.03359902305596	566.5791495536745	-2.6259541984732824	8.534351145038167	1.2213740458015268	-0.05247376311844078	0.42728635682158916	0.08845577211394302	
1.7089476590609812E12	2.532608695652174	-6.380434782608695	3.4456521739130435	3957.5091575091574	128.0	128.0	-1.1307950175756238	28.78504023373607	27.654245216160444	483.03597903680554	566.5958096499216	-1.3435114503816794	7.49618320610687	0.916030534351145	-0.04497751124437781	0.43928035982008995	0.07496251874062969	
1.7089476590805134E12	2.532608695652174	-6.391304347826087	3.510869565217391	3958.974358974359	128.0	128.0	-1.137935058824427	28.802565789528586	27.664630730704157	483.0292717253294	566.6016515018525	-1.5572519083969465	7.6183206106870225	1.4198473282442747	-0.038980509745127435	0.43628185907046474	0.08395802098950525	
1.708947659100046E12	2.5543478260869565	-6.456521739130435	3.4456521739130435	3957.5091575091574	128.0	128.0	-1.1385120318546333	28.805162168164514	27.66665013630988	483.03114688767755	566.6144891517746	-2.931297709923664	8.061068702290076	1.5114503816793892	-0.041979010494752625	0.4542728635682159	0.07946026986506746	
1.7089476591195781E12	2.532608695652174	-6.445652173913043	3.5	3958.974358974359	128.0	128.0	-1.133824125984207	28.798815464832245	27.664991338848036	483.03302205002575	566.634322599688	-3.633587786259542	7.404580152671755	1.297709923664122	-0.038980509745127435	0.4287856071964018	0.08995502248875561	
1.7089476591391104E12	2.5652173913043477	-6.434782608695652	3.4565217391304346	3931.135531135531	128.0	128.0	-1.1394496130287186	28.80898461448963	27.66953500146091	483.03857541544147	566.6331686536275	-2.8244274809160306	7.374045801526718	0.9923664122137404	-0.034482758620689655	0.4332833583208396	0.07646176911544228	
1.7089476591586426E12	2.5543478260869565	-6.467391304347826	3.4456521739130435	3958.974358974359	128.0	128.0	-1.1478878435954862	28.81482646642047	27.666938622824983	483.0188862107857	566.6491796552158	-2.229007633587786	6.671755725190839	0.9465648854961831	-0.04047976011994003	0.4422788605697151	0.08545727136431784	
1.7089476591781748E12	2.543478260869565	-6.423913043478261	3.4130434782608696	3958.974358974359	128.0	128.0	-1.1602206421161465	28.814033128503937	27.65381248638779	483.0194631838159	566.6678591570686	-1.7709923664122136	7.2824427480916025	0.48854961832061067	-0.03298350824587706	0.43928035982008995	0.0704647676161919	
1.708947659197707E12	2.5543478260869565	-6.413043478260869	3.467391304347826	3948.7179487179483	128.0	128.0	-1.1635382370398328	28.867835863570676	27.704297626530842	483.0272523197237	566.6884138212698	-0.4580152671755725	7.038167938931298	0.24427480916030533	-0.046476761619190406	0.41529235382308843	0.06146926536731634	
1.7089476592172393E12	2.510869565217391	-6.4021739130434785	3.467391304347826	3958.974358974359	128.0	128.0	-1.1490417896558989	28.894953595990376	27.745911806334476	483.0307141579049	566.69959267373	-0.0916030534351145	7.0534351145038165	0.32061068702290074	-0.04497751124437781	0.42728635682158916	0.06446776611694152	
1.7089476592367715E12	2.510869565217391	-6.3478260869565215	3.4456521739130435	3958.974358974359	128.0	128.0	-1.1250252872735604	28.935846559506246	27.810821272232687	483.03446448260127	566.6832931856267	-0.4427480916030534	6.687022900763359	0.42748091603053434	-0.025487256371814093	0.43478260869565216	0.07796101949025487	
1.7089476592563037E12	2.5217391304347827	-6.358695652173913	3.4891304347826084	3957.5091575091574	128.0	128.0	-1.1135579482982099	28.881899581181955	27.768341632883747	483.0285505090416	566.698294484412	0.015267175572519083	6.458015267175572	1.0076335877862594	-0.04047976011994003	0.43928035982008995	0.0704647676161919	
1.708947659275836E12	2.5	-6.380434782608695	3.4782608695652173	3958.974358974359	128.0	128.0	-1.15005149245876	28.800834870437967	27.650783377979206	483.0332384149121	566.6930296055115	-0.8549618320610687	6.183206106870228	1.0076335877862594	-0.041979010494752625	0.4407796101949025	0.08395802098950525	
1.7089476592953682E12	2.543478260869565	-6.358695652173913	3.4456521739130435	3931.135531135531	128.0	128.0	-1.1460848028760915	28.776529881540526	27.630445078664433	483.02011227847487	566.6884859428985	-2.3053435114503817	6.015267175572519	1.0229007633587786	-0.038980509745127435	0.4332833583208396	0.07346326836581708	
1.7089476593149004E12	2.510869565217391	-6.380434782608695	3.4891304347826084	3958.974358974359	128.0	128.0	-1.171399494576394	28.768668624003965	27.59726912942757	483.02263653548204	566.6638203458572	-2.5801526717557253	6.1679389312977095	0.9618320610687022	-0.04947526236881559	0.4287856071964018	0.07646176911544228	
1.7089476593344326E12	2.543478260869565	-6.358695652173913	3.434782608695652	3960.43956043956	128.0	128.0	-1.1212749625772194	29.017416121651664	27.896141159074446	483.0278292927539	566.740774123761	-2.610687022900763	6.625954198473282	0.7633587786259541	-0.037481259370314844	0.43478260869565216	0.06746626686656672	
1.7089476593539648E12	2.5217391304347827	-6.33695652173913	3.510869565217391	3947.252747252747	128.0	128.0	-0.3492850481611548	29.453175002714993	29.10388995455384	483.0191746973008	566.7464717324343	-1.7099236641221374	6.885496183206107	1.083969465648855	-0.04497751124437781	0.43928035982008995	0.07496251874062969	
1.708947659373497E12	2.5217391304347827	-6.3478260869565215	3.510869565217391	3958.974358974359	128.0	128.0	-0.6811166621585683	28.70931252352149	28.02819586136292	483.03114688767755	566.5810968376514	-1.7251908396946565	6.33587786259542	0.6259541984732824	-0.04047976011994003	0.43478260869565216	0.07796101949025487	
1.7089476593930293E12	2.652173913043478	-6.4021739130434785	3.358695652173913	3957.5091575091574	128.0	128.0	-1.133824125984207	28.666183789513568	27.53235966352936	483.03482509074513	566.7521693411076	-2.2442748091603053	6.702290076335878	0.6870229007633587	-0.05247376311844078	0.43928035982008995	0.0704647676161919	
1.7089476594125615E12	2.5	-6.391304347826087	3.8478260869565215	3957.5091575091574	128.0	128.0	-1.1471666273077283	28.74905154097695	27.60188491366922	483.02494442760286	566.6737731306283	-3.8931297709923665	7.648854961832061	1.2366412213740459	-0.046476761619190406	0.4257871064467766	0.06146926536731634	
1.7089476594320938E12	2.543478260869565	-6.5	3.3478260869565215	3957.5091575091574	128.0	128.0	-1.1453635865883336	28.77198621892765	27.626622632339316	483.02818990089776	566.6589881967293	-6.595419847328244	6.290076335877862	0.5343511450381679	-0.046476761619190406	0.4332833583208396	0.08995502248875561	
1.708947659451626E12	2.5543478260869565	-6.380434782608695	3.5	3929.6703296703295	128.0	128.0	-1.1498351275724326	28.78280446324402	27.632969335671586	483.02407896805755	566.6559590883206	-2.183206106870229	8.900763358778626	0.9923664122137404	-0.05247376311844078	0.43178410794602695	0.08845577211394302	
1.7089476594711584E12	2.543478260869565	-6.369565217391304	3.510869565217391	3931.135531135531	128.0	128.0	-1.1549557632155136	28.815619804337004	27.66066404112149	483.0285505090416	566.6687967382428	1.9236641221374045	7.1603053435114505	1.114503816793893	-0.04947526236881559	0.43628185907046474	0.08695652173913043	
1.7089476594906907E12	2.532608695652174	-6.4021739130434785	3.532608695652174	3957.5091575091574	128.0	128.0	-1.1657740075318823	28.846487861453042	27.68071385392116	483.03093052279127	566.6592766832443	-1.6793893129770991	7.145038167938931	0.9770992366412213	-0.041979010494752625	0.4287856071964018	0.07346326836581708	
1.708947659510223E12	2.5	-6.434782608695652	3.5652173913043477	3948.7179487179483	128.0	128.0	-1.15553273624572	28.858604295087375	27.703071558841653	483.0278292927539	566.6434820465424	-5.3893129770992365	5.083969465648854	0.6717557251908397	-0.031484257871064465	0.4332833583208396	0.07646176911544228	
1.7089476595297551E12	2.5652173913043477	-6.445652173913043	3.532608695652174	3957.5091575091574	128.0	128.0	-1.1384399102258576	28.857017619254307	27.718577709028448	483.02436745457265	566.6671379407809	-5.709923664122138	5.770992366412213	0.7938931297709924	-0.046476761619190406	0.43628185907046474	0.07646176911544228	
1.7089476595492874E12	2.5869565217391304	-6.434782608695652	3.4565217391304346	3957.5091575091574	128.0	128.0	-1.1219240572362015	28.85939763300391	27.73747357576771	483.0248723059741	566.7042084579716	-4.65648854961832	5.068702290076335	0.47328244274809156	-0.047976011994003	0.43178410794602695	0.06446776611694152	
1.7089476595688196E12	2.5869565217391304	-6.380434782608695	3.4456521739130435	3957.5091575091574	128.0	128.0	-1.0834111074699293	28.835453252250346	27.752042144780418	483.0364117665782	566.7608960581895	-2.4427480916030535	5.633587786259541	0.22900763358778625	-0.041979010494752625	0.4407796101949025	0.07646176911544228	
1.7089476595883518E12	2.5543478260869565	-6.358695652173913	3.4565217391304346	3958.974358974359	128.0	128.0	-1.0655249435335332	28.845117550506302	27.77959260697277	483.02407896805755	566.7496450841004	-0.7786259541984732	5.2824427480916025	0.0916030534351145	-0.041979010494752625	0.4332833583208396	0.07946026986506746	
1.708947659607884E12	2.5760869565217392	-6.326086956521739	3.4891304347826084	3932.6007326007325	128.0	128.0	-1.104542744701236	28.87425468853172	27.769711943830487	483.0240068464288	566.7194261216433	-0.41221374045801523	5.923664122137405	0.9007633587786259	-0.038980509745127435	0.43628185907046474	0.0944527736131934	
1.7089476596274163E12	2.5652173913043477	-6.33695652173913	3.543478260869565	3958.974358974359	128.0	128.0	-1.1264677198490762	28.84771392914223	27.721246209293152	483.0182371161267	566.6817065097936	-1.8015267175572518	5.83206106870229	0.5038167938931297	-0.034482758620689655	0.4332833583208396	0.06596701649175413	
1.7089476596469485E12	2.5543478260869565	-6.380434782608695	3.543478260869565	3957.5091575091574	128.0	128.0	-1.1250252872735604	28.82651017028215	27.701484883008586	483.02552140063307	566.6643251972587	-3.16030534351145	5.984732824427481	0.41221374045801523	-0.031484257871064465	0.43628185907046474	0.06896551724137931	
1.7089476596664807E12	2.5760869565217392	-6.380434782608695	3.4565217391304346	3950.18315018315	128.0	128.0	-1.1228616384102867	28.834227184561158	27.71136554615087	483.03302205002575	566.6667052110082	-3.2061068702290076	6.442748091603053	0.7175572519083969	-0.04497751124437781	0.43928035982008995	0.07496251874062969	
1.708947659686013E12	2.5543478260869565	-6.391304347826087	3.510869565217391	3957.5091575091574	128.0	128.0	-1.1260349900764215	28.854132754103276	27.728097764026852	483.02970445510203	566.6737731306283	-1.1755725190839694	5.816793893129771	1.0534351145038168	-0.05697151424287856	0.4407796101949025	0.06596701649175413	
1.7089476597055452E12	2.543478260869565	-6.413043478260869	3.510869565217391	3958.974358974359	128.0	128.0	-1.1190391920851699	28.863436444215353	27.744397252130184	483.03287780676817	566.679326496044	-1.3740458015267174	7.435114503816793	1.114503816793893	-0.05547226386806597	0.4422788605697151	0.07796101949025487	
1.7089476597250774E12	2.5	-6.445652173913043	3.532608695652174	3958.974358974359	128.0	128.0	-1.1064179070494065	28.86877344474476	27.762355537695356	483.0262426169208	566.6683640084701	-3.1755725190839694	6.152671755725191	1.5114503816793892	-0.038980509745127435	0.4287856071964018	0.08695652173913043	
1.7089476597446096E12	2.5760869565217392	-6.456521739130435	3.532608695652174	3958.974358974359	128.0	128.0	-1.0989893792855001	28.85456548387593	27.755576104590432	483.0292717253294	566.6574015208962	-4.244274809160305	6.5038167938931295	1.7099236641221374	-0.038980509745127435	0.43628185907046474	0.07646176911544228	
1.7089476597641418E12	2.5978260869565215	-6.434782608695652	3.532608695652174	3931.135531135531	128.0	128.0	-1.0955996627330378	28.855719429936343	27.760119767203307	483.03085840116245	566.6507663310488	-3.312977099236641	6.412213740458015	1.66412213740458	-0.04497751124437781	0.43478260869565216	0.04947526236881559	
1.708947659783674E12	2.5760869565217392	-6.4021739130434785	3.4891304347826084	3958.974358974359	128.0	128.0	-1.0852862698180998	28.84187207721139	27.756585807393293	483.0310747660488	566.6649021702889	-1.7709923664122136	7.114503816793893	1.8015267175572518	-0.03298350824587706	0.43928035982008995	0.07796101949025487	
1.7089476598032063E12	2.5543478260869565	-6.3478260869565215	3.5543478260869565	3958.974358974359	128.0	128.0	-1.0914887298928178	28.89257358224077	27.801084852347955	483.02941596858693	566.6714652385075	-1.2671755725190839	6.961832061068702	1.3282442748091603	-0.04047976011994003	0.42728635682158916	0.0704647676161919	
1.7089476598227385E12	2.5217391304347827	-6.33695652173913	3.5543478260869565	3947.252747252747	128.0	128.0	-1.0736746875851975	28.921854963523742	27.848180275938546	483.03121900930637	566.6710325087348	-0.6870229007633587	7.0534351145038165	1.282442748091603	-0.031484257871064465	0.4407796101949025	0.07946026986506746	
1.708947659842271E12	2.532608695652174	-6.33695652173913	3.5	3957.5091575091574	128.0	128.0	-1.0397054004318	28.955030912760606	27.915325512328806	483.03828692892637	566.6457178170346	-0.6412213740458015	7.206106870229007	1.4198473282442747	-0.047976011994003	0.43928035982008995	0.0704647676161919	
1.7089476598618032E12	2.510869565217391	-6.369565217391304	3.5652173913043477	3957.5091575091574	128.0	128.0	-1.0260744125931756	28.896323906937113	27.870249494343938	483.04283059153926	566.6603585076759	-1.66412213740458	6.549618320610687	1.5572519083969465	-0.04047976011994003	0.4452773613193403	0.07796101949025487	
1.7089476598813354E12	2.510869565217391	-6.369565217391304	3.5543478260869565	3956.043956043956	128.0	128.0	-1.033430818728306	28.76354798836088	27.730117169632575	483.03835905055513	566.6370632215815	-3.3587786259541983	6.793893129770992	1.297709923664122	-0.029985007496251874	0.43478260869565216	0.06746626686656672	
1.7089476599008677E12	2.510869565217391	-6.423913043478261	3.510869565217391	3957.5091575091574	128.0	128.0	-1.0309065617211535	28.743930905333865	27.713024343612712	483.0382148072976	566.6380729243842	-4.67175572519084	6.351145038167939	1.4351145038167938	-0.04047976011994003	0.4452773613193403	0.05997001499250375	
1.7089476599204E12	2.5217391304347827	-6.423913043478261	3.543478260869565	3944.322344322344	128.0	128.0	-1.1398102211725976	28.724169579049303	27.584359357876703	483.03215659048044	566.6681476435838	-3.679389312977099	6.2748091603053435	0.7938931297709924	-0.04047976011994003	0.4452773613193403	0.08545727136431784	
1.7089476599399321E12	2.543478260869565	-6.358695652173913	3.5652173913043477	3956.043956043956	128.0	128.0	-0.9762383671091042	28.961233372835324	27.98499500572622	483.03273356351065	566.7041363363429	-3.129770992366412	6.595419847328244	0.7786259541984732	-0.031484257871064465	0.42278860569715143	0.07646176911544228	
1.7089476599594644E12	2.510869565217391	-6.380434782608695	3.4891304347826084	3957.5091575091574	128.0	128.0	-0.24680021367075608	29.390934037081486	29.14413382341073	483.0325171986243	566.7174067160377	-3.7709923664122136	6.763358778625954	1.129770992366412	-0.038980509745127435	0.4407796101949025	0.07346326836581708	
1.7089476599789966E12	2.510869565217391	-6.380434782608695	3.5	3947.252747252747	128.0	128.0	-0.8475733813730933	28.4870336636345	27.639460282261407	483.0355463070329	566.700241768389	-3.3435114503816794	5.9541984732824424	0.7938931297709924	-0.031484257871064465	0.4407796101949025	0.05547226386806597	
1.7089476599985288E12	2.630434782608696	-6.4021739130434785	3.5543478260869565	3958.974358974359	128.0	128.0	-0.9687377177164219	28.56139106290234	27.59265334518592	483.0417487671076	566.7570736118644	-2.2748091603053435	7.587786259541985	1.2366412213740459	-0.034482758620689655	0.43628185907046474	0.06896551724137931	
1.708947660018061E12	2.5543478260869565	-6.369565217391304	3.6739130434782608	3958.974358974359	128.0	128.0	-0.944216363932653	28.697196089887157	27.752979725954503	483.04138815896374	566.6485305605568	-4.67175572519084	6.519083969465648	0.6564885496183206	-0.047976011994003	0.45277361319340326	0.0704647676161919	
1.7089476600375933E12	2.5217391304347827	-6.358695652173913	3.5543478260869565	3957.5091575091574	128.0	128.0	-0.9424133232132582	28.709240401892714	27.766827078679455	483.03843117218395	566.6282643828707	-2.7938931297709924	9.17557251908397	1.2671755725190839	-0.041979010494752625	0.4287856071964018	0.06596701649175413	
1.7089476600571255E12	2.5652173913043477	-6.282608695652174	3.4782608695652173	3958.974358974359	128.0	128.0	-0.9265465648825842	28.70556219882515	27.779015633942564	483.03655600983575	566.6422559788533	-0.5038167938931297	8.015267175572518	1.3740458015267174	-0.03298350824587706	0.4422788605697151	0.0704647676161919	
1.7089476600766577E12	2.543478260869565	-6.326086956521739	3.5652173913043477	3948.7179487179483	128.0	128.0	-0.9254647404509474	28.73260780961607	27.80714306916512	483.04167664547884	566.6328801671124	-2.519083969465649	8.198473282442748	0.6717557251908397	-0.03298350824587706	0.424287856071964	0.07496251874062969	
1.70894766009619E12	2.5	-6.413043478260869	3.5869565217391304	3958.974358974359	128.0	128.0	-0.9044052248484165	28.759292812263112	27.854887587414694	483.0385032938127	566.6033824209431	-7.969465648854961	5.893129770992366	0.7938931297709924	-0.046476761619190406	0.4332833583208396	0.06896551724137931	
1.7089476601157222E12	2.467391304347826	-6.467391304347826	3.5652173913043477	3958.974358974359	128.0	128.0	-0.886663304169572	28.760807366467404	27.87414406229783	483.03987360475946	566.5909775007937	-8.80916030534351	6.549618320610687	0.8244274809160305	-0.041979010494752625	0.41829085457271364	0.07346326836581708	
1.7089476601352544E12	2.4782608695652173	-6.489130434782608	3.5543478260869565	3948.7179487179483	128.0	128.0	-0.8603389096664084	28.761889190899037	27.90155028123263	483.0372051044947	566.5986945150727	-7.2824427480916025	6.152671755725191	0.5190839694656488	-0.025487256371814093	0.4422788605697151	0.08095952023988005	
1.7089476601547866E12	2.510869565217391	-6.510869565217391	3.4130434782608696	3958.974358974359	128.0	128.0	-0.8348799747085541	28.75655219036963	27.921672215661076	483.0421814968803	566.6654791433191	-2.8854961832061066	5.83206106870229	0.3511450381679389	-0.0239880059970015	0.4407796101949025	0.07646176911544228	
1.7089476601743188E12	2.510869565217391	-6.4021739130434785	3.434782608695652	3958.974358974359	128.0	128.0	-0.8319951095575225	28.749123662605722	27.9171285530482	483.04045057778967	566.6965635653214	0.07633587786259542	5.83206106870229	0.564885496183206	-0.038980509745127435	0.43628185907046474	0.07646176911544228	
1.708947660193851E12	2.543478260869565	-6.326086956521739	3.4891304347826084	3957.5091575091574	128.0	128.0	-0.8076901206600811	28.771986218927648	27.964296098267567	483.0423978617666	566.6808410502483	0.0	5.923664122137405	1.2366412213740459	-0.046476761619190406	0.43628185907046474	0.07646176911544228	
1.7089476602133835E12	2.5869565217391304	-6.304347826086956	3.4891304347826084	3958.974358974359	128.0	128.0	-0.842524867358788	28.782155368585034	27.939630501226247	483.03980148313065	566.6425444653684	-2.213740458015267	5.572519083969466	0.8396946564885496	-0.031484257871064465	0.4407796101949025	0.06896551724137931	
1.7089476602329158E12	2.5543478260869565	-6.326086956521739	3.5543478260869565	3932.6007326007325	128.0	128.0	-0.8949572914787879	28.766649218398243	27.871691926919453	483.04095542919106	566.6201867604478	-4.442748091603053	7.129770992366412	0.6717557251908397	-0.04497751124437781	0.43478260869565216	0.07796101949025487	
1.708947660252448E12	2.532608695652174	-6.33695652173913	3.619565217391304	3957.5091575091574	128.0	128.0	-0.8989239810614564	28.762538285558023	27.863614304496565	483.04153240222126	566.6201867604478	-3.2519083969465647	6.977099236641221	0.7022900763358778	-0.041979010494752625	0.43628185907046474	0.07346326836581708	
1.7089476602719802E12	2.543478260869565	-6.380434782608695	3.4130434782608696	3958.974358974359	128.0	128.0	-0.8940918319334784	28.751287311469	27.85719547953552	483.032949928397	566.6310050047642	-1.3435114503816794	6.259541984732824	1.083969465648855	-0.034482758620689655	0.43628185907046474	0.06596701649175413	
1.7089476602915125E12	2.5	-6.358695652173913	3.5	3947.252747252747	128.0	128.0	-0.8833457092458856	28.80234942464226	27.91900371539637	483.04066694267595	566.63302441037	-1.465648854961832	6.229007633587786	1.099236641221374	-0.04497751124437781	0.42728635682158916	0.06746626686656672	
1.7089476603110447E12	2.4891304347826084	-6.391304347826087	3.5760869565217392	3957.5091575091574	128.0	128.0	-0.8687771402331759	28.807325817027788	27.93854867679461	483.0439124159709	566.6164364357516	-3.7404580152671754	4.870229007633587	1.2213740458015268	-0.04047976011994003	0.4452773613193403	0.0704647676161919	
1.708947660330577E12	2.543478260869565	-6.434782608695652	3.5652173913043477	3957.5091575091574	128.0	128.0	-0.8688492618619517	28.820956804866412	27.95210754300446	483.04153240222126	566.5952326768914	-4.290076335877862	5.770992366412213	1.4198473282442747	-0.03298350824587706	0.43478260869565216	0.0704647676161919	
1.7089476603501091E12	2.5652173913043477	-6.456521739130435	3.5760869565217392	3957.5091575091574	128.0	128.0	-0.8722389784144138	28.813167668958627	27.94092869054421	483.0486003218413	566.5930690280281	-4.366412213740458	6.641221374045801	1.0381679389312977	-0.04947526236881559	0.4332833583208396	0.07346326836581708	
1.7089476603696414E12	2.5760869565217392	-6.434782608695652	3.543478260869565	3956.043956043956	128.0	128.0	-0.8854372364803835	28.80898461448963	27.923547378009246	483.0473021325233	566.6180952332134	-2.381679389312977	7.236641221374046	1.0687022900763359	-0.029985007496251874	0.43928035982008995	0.06446776611694152	
1.7089476603891736E12	2.5543478260869565	-6.33695652173913	3.543478260869565	3931.135531135531	128.0	128.0	-0.8944524400773574	28.862715227927595	27.968262787850236	483.04463363225864	566.6194655441601	-0.8396946564885496	6.65648854961832	1.0229007633587786	-0.029985007496251874	0.4422788605697151	0.06446776611694152	
1.7089476604087058E12	2.543478260869565	-6.33695652173913	3.532608695652174	3957.5091575091574	128.0	128.0	-0.8895481693206035	28.896540271823444	28.00699210250284	483.0453548485464	566.6182394764709	-0.04580152671755725	7.083969465648854	1.099236641221374	-0.04947526236881559	0.4332833583208396	0.07646176911544228	
1.708947660428238E12	2.5217391304347827	-6.3478260869565215	3.5217391304347827	3957.5091575091574	128.0	128.0	-0.8598340582649778	28.969310995258212	28.109476936993236	483.03756571263864	566.5748943775767	-1.0076335877862594	6.534351145038167	1.2366412213740459	-0.041979010494752625	0.4512743628185907	0.06596701649175413	
1.7089476604477703E12	2.510869565217391	-6.3478260869565215	3.5978260869565215	3945.7875457875457	128.0	128.0	-0.8574540445153767	28.969310995258212	28.111856950742837	483.04910517324276	566.5810968376514	-2.900763358778626	6.809160305343511	0.8549618320610687	-0.038980509745127435	0.4407796101949025	0.07646176911544228	
1.7089476604673025E12	2.5	-6.369565217391304	3.5978260869565215	3958.974358974359	128.0	128.0	-0.8958948726528732	28.83776114437117	27.941866271718297	483.0527833763103	566.6199703955615	-4.580152671755725	6.442748091603053	1.114503816793893	-0.03298350824587706	0.4422788605697151	0.07496251874062969	
1.7089476604868347E12	2.510869565217391	-6.4021739130434785	3.532608695652174	3957.5091575091574	128.0	128.0	-0.8899808990932583	28.815764047594556	27.925783148501296	483.0492494165003	566.6309328831354	-3.6030534351145036	6.580152671755725	0.9007633587786259	-0.03298350824587706	0.4422788605697151	0.06746626686656672	
1.708947660506367E12	2.5217391304347827	-6.380434782608695	3.543478260869565	3957.5091575091574	128.0	128.0	-0.9701801502919377	28.83451567107626	27.864335520784323	483.0511245788485	566.6374238297253	-2.1068702290076335	6.641221374045801	0.9770992366412213	-0.04047976011994003	0.43178410794602695	0.07796101949025487	
1.7089476605258992E12	2.5	-6.369565217391304	3.5543478260869565	3958.974358974359	128.0	128.0	-0.9964324231663255	28.979696509801926	27.9832640866356	483.0508360923334	566.6804083204756	-1.6946564885496183	6.916030534351145	1.0687022900763359	-0.037481259370314844	0.4452773613193403	0.0704647676161919	
1.7089476605454314E12	2.4891304347826084	-6.369565217391304	3.532608695652174	3953.113553113553	128.0	128.0	-0.11012972714063253	29.34239618091538	29.23226645377475	483.04989851115926	566.6571851560099	-2.4122137404580153	6.152671755725191	0.9007633587786259	-0.041979010494752625	0.4257871064467766	0.06896551724137931	
1.7089476605649636E12	2.5217391304347827	-6.358695652173913	3.5217391304347827	3957.5091575091574	128.0	128.0	-0.7018155696172201	28.79153118032589	28.08971561070867	483.04694152437946	566.5222455885704	-1.8015267175572518	6.595419847328244	1.3740458015267174	-0.038980509745127435	0.4287856071964018	0.06896551724137931	
1.7089476605844958E12	2.608695652173913	-6.380434782608695	3.467391304347826	3958.974358974359	128.0	128.0	-0.916305293596422	28.6622170999309	27.745911806334476	483.0514130653636	566.7367353125495	-1.8473282442748091	4.106870229007633	1.1908396946564885	-0.04047976011994003	0.43928035982008995	0.07796101949025487	
1.7089476606040283E12	2.4891304347826084	-6.3478260869565215	3.793478260869565	3945.7875457875457	128.0	128.0	-0.9258253485948263	28.88608263565095	27.960257287056123	483.051268822106	566.5978290555274	-4.625954198473282	6.961832061068702	0.7633587786259541	-0.037481259370314844	0.43928035982008995	0.0704647676161919	
1.7089476606235605E12	2.5	-6.4021739130434785	3.5543478260869565	3958.974358974359	128.0	128.0	-0.9336866061313875	28.90973852988941	27.97605192375802	483.04961002464415	566.5935017578008	-3.541984732824427	8.030534351145038	1.282442748091603	-0.04047976011994003	0.43178410794602695	0.07796101949025487	
1.7089476606430928E12	2.532608695652174	-6.315217391304348	3.4456521739130435	3958.974358974359	128.0	128.0	-0.933542362873836	28.93909203280116	28.005549669927323	483.05177367350745	566.5956654066641	1.282442748091603	8.045801526717558	1.282442748091603	-0.041979010494752625	0.43628185907046474	0.06896551724137931	
1.708947660662625E12	2.5217391304347827	-6.293478260869565	3.5978260869565215	3957.5091575091574	128.0	128.0	-0.945947283023272	28.967435832910045	28.021488549886772	483.0543700521434	566.5810247160226	-0.3053435114503817	7.969465648854961	1.099236641221374	-0.041979010494752625	0.43628185907046474	0.06596701649175413	
1.7089476606821572E12	2.4891304347826084	-6.391304347826087	3.619565217391304	3958.974358974359	128.0	128.0	-0.943855755788774	29.004650593358352	28.060794837569578	483.05076397070457	566.5585227678446	-6.7328244274809155	5.984732824427481	0.8244274809160305	-0.019490254872563718	0.4407796101949025	0.06896551724137931	
1.7089476607016895E12	2.467391304347826	-6.478260869565217	3.641304347826087	3953.113553113553	128.0	128.0	-0.9324605384421991	29.012872459038793	28.080411920596593	483.0536488358556	566.5549888080345	-8.99236641221374	7.526717557251908	0.8396946564885496	-0.047976011994003	0.43478260869565216	0.05997001499250375	
1.7089476607212217E12	2.4782608695652173	-6.521739130434782	3.5978260869565215	3957.5091575091574	128.0	128.0	-0.9194786452625567	29.02369070335516	28.104212058092603	483.05617309286276	566.5682591877293	-6.229007633587786	6.580152671755725	0.7633587786259541	-0.038980509745127435	0.4287856071964018	0.06146926536731634	
1.708947660740754E12	2.510869565217391	-6.478260869565217	3.402173913043478	3957.5091575091574	128.0	128.0	-0.8843554120487467	29.017632486537995	28.133277074489246	483.0552355116887	566.6210522199932	-1.2671755725190839	5.908396946564885	0.2748091603053435	-0.026986506746626684	0.4257871064467766	0.07646176911544228	
1.7089476607602861E12	2.5217391304347827	-6.380434782608695	3.4891304347826084	3944.322344322344	128.0	128.0	-0.8819753982991455	29.024123433127816	28.14214803482867	483.05660582263545	566.6455014521482	2.396946564885496	6.076335877862595	0.33587786259541985	-0.031484257871064465	0.4257871064467766	0.07946026986506746	
1.7089476607798184E12	2.510869565217391	-6.293478260869565	3.5543478260869565	3957.5091575091574	128.0	128.0	-0.8759171814819792	29.053404814410786	28.177487632928806	483.05328822771173	566.6242255716593	0.5190839694656488	6.061068702290076	1.0381679389312977	-0.034482758620689655	0.4407796101949025	0.07646176911544228	
1.7089476607993506E12	2.5217391304347827	-6.25	3.5543478260869565	3957.5091575091574	128.0	128.0	-0.9248877674207411	29.065232761530016	28.140344994109274	483.0562452144915	566.589246581703	-2.4427480916030535	6.549618320610687	0.8091603053435115	-0.046476761619190406	0.4542728635682159	0.06146926536731634	
1.7089476608188828E12	2.5217391304347827	-6.33695652173913	3.5869565217391304	3956.043956043956	128.0	128.0	-0.9779692861997231	29.039701704943386	28.061732418743663	483.0492494165003	566.5782840941291	-4.580152671755725	6.595419847328244	0.6564885496183206	-0.046476761619190406	0.4482758620689655	0.06896551724137931	
1.708947660838415E12	2.532608695652174	-6.4021739130434785	3.641304347826087	3958.974358974359	128.0	128.0	-0.9877057060844548	29.013810040212878	28.026104334128423	483.05516339005993	566.5769859048112	-3.66412213740458	7.648854961832061	0.5343511450381679	-0.026986506746626684	0.4407796101949025	0.06596701649175413	
1.7089476608579473E12	2.532608695652174	-6.369565217391304	3.5652173913043477	3934.065934065934	128.0	128.0	-0.9942687743030518	29.0340040962701	28.039735321967047	483.0511245788485	566.5838374595448	-1.0076335877862594	6.488549618320611	1.099236641221374	-0.034482758620689655	0.43628185907046474	0.06146926536731634	
1.7089476608774795E12	2.510869565217391	-6.380434782608695	3.4565217391304346	3958.974358974359	128.0	128.0	-0.986623881652818	29.057732112137334	28.071108230484516	483.05617309286276	566.6108830703358	0.030534351145038167	6.625954198473282	1.1450381679389312	-0.029985007496251874	0.43928035982008995	0.07796101949025487	
1.7089476608970117E12	2.4565217391304346	-6.369565217391304	3.6304347826086953	3958.974358974359	128.0	128.0	-0.9941245310455002	29.082902560580084	28.088778029534584	483.0444172673723	566.6077818402985	-1.4045801526717556	5.862595419847328	1.3740458015267174	-0.022488755622188904	0.43478260869565216	0.0704647676161919	
1.708947660916544E12	2.510869565217391	-6.391304347826087	3.6304347826086953	3942.8571428571427	128.0	128.0	-0.9947015040757066	29.08860016925337	28.093898665177665	483.0498263895305	566.5862174732945	-3.7557251908396947	5.923664122137405	0.9312977099236641	-0.04947526236881559	0.4257871064467766	0.06896551724137931	
1.7089476609360762E12	2.5543478260869565	-6.445652173913043	3.5978260869565215	3958.974358974359	128.0	128.0	-0.9917445172958992	29.079657087285174	28.087912569989275	483.05386520074194	566.5860011084081	-4.0	6.931297709923664	1.0229007633587786	-0.029985007496251874	0.43928035982008995	0.07496251874062969	
1.7089476609556084E12	2.5760869565217392	-6.391304347826087	3.5869565217391304	3958.974358974359	128.0	128.0	-1.0161216278221163	29.08174861451967	28.065626986697556	483.05047548418946	566.6048248535186	-2.6717557251908395	7.236641221374046	0.8091603053435115	-0.047976011994003	0.4422788605697151	0.06746626686656672	
1.7089476609751409E12	2.5543478260869565	-6.380434782608695	3.5978260869565215	3957.5091575091574	128.0	128.0	-1.0198719525184576	29.128267065080056	28.1083951125616	483.0569664307793	566.6030218127993	-1.4351145038167938	7.465648854961832	0.6717557251908397	-0.031484257871064465	0.4482758620689655	0.06896551724137931	
1.708947660994673E12	2.543478260869565	-6.33695652173913	3.5760869565217392	3958.974358974359	128.0	128.0	-1.0004712343777697	29.187046192532325	28.186574958154555	483.05898583638503	566.5926362982556	-1.7404580152671756	7.465648854961832	0.7938931297709924	-0.031484257871064465	0.4542728635682159	0.06896551724137931	
1.7089476610142053E12	2.5217391304347827	-6.326086956521739	3.5543478260869565	3934.065934065934	128.0	128.0	-1.004221559074111	29.199595355939312	28.1953737968652	483.04939365975787	566.5718652691681	-2.2748091603053435	7.49618320610687	0.9007633587786259	-0.04947526236881559	0.43628185907046474	0.06596701649175413	
1.7089476610337375E12	2.510869565217391	-6.326086956521739	3.5978260869565215	3958.974358974359	128.0	128.0	-1.0139579789588427	29.124228253868612	28.11027027490977	483.0533603493405	566.5962423796943	-3.450381679389313	6.99236641221374	0.7786259541984732	-0.037481259370314844	0.43928035982008995	0.06446776611694152	
1.7089476610532698E12	2.4891304347826084	-6.33695652173913	3.5869565217391304	3958.974358974359	128.0	128.0	-1.03833508948506	29.041793232177884	28.003458142692825	483.0478069839248	566.610810948707	-4.458015267175572	6.641221374045801	0.6412213740458015	-0.029985007496251874	0.4422788605697151	0.07496251874062969	
1.708947661072802E12	2.532608695652174	-6.358695652173913	3.5869565217391304	3941.391941391941	128.0	128.0	-1.0423017790677285	29.020156743545144	27.977854964477416	483.04881668672766	566.6128303543128	-4.488549618320611	6.885496183206107	0.8396946564885496	-0.041979010494752625	0.4407796101949025	0.08695652173913043	
1.7089476610923342E12	2.5217391304347827	-6.380434782608695	3.608695652173913	3958.974358974359	128.0	128.0	-1.2125809446073705	29.02253675729475	27.809955812687377	483.0548749035448	566.6629548863119	-4.122137404580153	7.007633587786259	0.8549618320610687	-0.041979010494752625	0.43628185907046474	0.07646176911544228	
1.7089476611118665E12	2.4891304347826084	-6.413043478260869	3.5760869565217392	3957.5091575091574	128.0	128.0	-0.9189737938611262	29.387183712385145	28.468209918524018	483.0505476058183	566.669373711273	-3.5572519083969465	7.2824427480916025	1.2213740458015268	-0.019490254872563718	0.4512743628185907	0.08395802098950525	
1.7089476611313987E12	2.532608695652174	-6.369565217391304	3.543478260869565	3957.5091575091574	128.0	128.0	-0.44145648973661544	29.296094095241322	28.854637605504706	483.0511245788485	566.491161166568	-1.7404580152671756	6.5038167938931295	0.9618320610687022	-0.037481259370314844	0.4452773613193403	0.06746626686656672	
1.708947661150931E12	2.5	-6.33695652173913	3.532608695652174	3957.5091575091574	128.0	128.0	-0.9664298255955965	28.76700982654212	27.800580000946525	483.04874456509884	566.7061557419486	-1.2519083969465647	6.122137404580153	1.114503816793893	-0.03298350824587706	0.45277361319340326	0.07496251874062969	
1.7089476611704631E12	2.5543478260869565	-6.326086956521739	3.608695652173913	3932.6007326007325	128.0	128.0	-1.0435999683856927	28.92481195030355	27.881211981917858	483.05711067403684	566.6783167932412	-4.702290076335878	6.198473282442748	0.8396946564885496	-0.034482758620689655	0.4482758620689655	0.07946026986506746	
1.7089476611899954E12	2.402173913043478	-6.3478260869565215	3.858695652173913	3957.5091575091574	128.0	128.0	-1.0274447235399156	29.01337731044022	27.985932586900304	483.0524948897952	566.6009302855647	-9.938931297709923	7.801526717557252	0.9007633587786259	-0.041979010494752625	0.44377811094452774	0.08395802098950525	
1.7089476612095276E12	2.5	-6.4021739130434785	3.434782608695652	3957.5091575091574	128.0	128.0	-1.0231174258133682	29.017271878394116	27.994154452580748	483.0575434038095	566.6035987858295	-4.183206106870228	7.816793893129771	0.8854961832061068	-0.038980509745127435	0.4332833583208396	0.07346326836581708	
1.7089476612290598E12	2.5217391304347827	-6.293478260869565	3.5217391304347827	3939.9267399267396	128.0	128.0	-1.0112894786941384	29.043019299867073	28.031729821172934	483.0543700521434	566.5953047985203	3.3435114503816794	8.473282442748092	0.916030534351145	-0.04047976011994003	0.4452773613193403	0.06746626686656672	
1.708947661248592E12	2.510869565217391	-6.271739130434782	3.619565217391304	3958.974358974359	128.0	128.0	-1.00732278911147	29.069199451112684	28.061876662001215	483.0516294302499	566.6022284748827	-3.4198473282442747	7.236641221374046	1.114503816793893	-0.038980509745127435	0.4332833583208396	0.06596701649175413	
1.7089476612681243E12	2.510869565217391	-6.391304347826087	3.5543478260869565	3958.974358974359	128.0	128.0	-0.9829456785852526	29.06667519410553	28.08372951552028	483.04787910555353	566.5722979989407	-9.862595419847327	6.7328244274809155	1.66412213740458	-0.037481259370314844	0.43478260869565216	0.0704647676161919	
1.7089476612876565E12	2.467391304347826	-6.478260869565217	3.6956521739130435	3957.5091575091574	128.0	128.0	-0.9781856510860505	29.068622478082478	28.090436826996427	483.0456433350615	566.572514363827	-10.015267175572518	7.236641221374046	1.1755725190839694	-0.034482758620689655	0.4257871064467766	0.07346326836581708	
1.7089476613071887E12	2.510869565217391	-6.510869565217391	3.5543478260869565	3957.5091575091574	128.0	128.0	-0.9590012978316901	29.063069112666742	28.10406781483505	483.0397293615019	566.594078730831	-8.0	6.488549618320611	0.6717557251908397	-0.029985007496251874	0.43928035982008995	0.06746626686656672	
1.708947661326721E12	2.4782608695652173	-6.5	3.391304347826087	3934.065934065934	128.0	128.0	-0.9241665511329832	29.056217557933042	28.132051006800058	483.0451384836601	566.6530742231696	-5.969465648854961	6.412213740458015	0.5190839694656488	-0.034482758620689655	0.4257871064467766	0.06596701649175413	
1.7089476613462534E12	2.4565217391304346	-6.467391304347826	3.467391304347826	3958.974358974359	128.0	128.0	-0.9015924813261607	29.042442326836866	28.140849845510704	483.04939365975787	566.6599978995321	-1.3282442748091603	6.564885496183206	0.6106870229007634	-0.04497751124437781	0.4422788605697151	0.04947526236881559	
1.7089476613657856E12	2.467391304347826	-6.369565217391304	3.543478260869565	3957.5091575091574	128.0	128.0	-0.9084440360598608	29.075401911187402	28.16695787512754	483.0361232800631	566.6355486673771	0.5954198473282443	6.534351145038167	1.0076335877862594	-0.04497751124437781	0.42728635682158916	0.07496251874062969	
1.7089476613853179E12	2.5	-6.315217391304348	3.5543478260869565	3939.9267399267396	128.0	128.0	-0.944576972076532	29.054414517213647	28.109837545137115	483.03597903680554	566.6214128281371	-1.129770992366412	7.206106870229007	1.0687022900763359	-0.038980509745127435	0.41529235382308843	0.05847076461769115	
1.70894766140485E12	2.4891304347826084	-6.33695652173913	3.652173913043478	3931.135531135531	128.0	128.0	-0.9753729075637946	29.002775431010182	28.027402523446387	483.03244507699554	566.6299231803326	-4.366412213740458	7.374045801526718	0.6717557251908397	-0.04047976011994003	0.4422788605697151	0.05997001499250375	
1.7089476614243823E12	2.5	-6.4021739130434785	3.5543478260869565	3958.974358974359	128.0	128.0	-0.9708292449509198	28.964983697531668	27.994154452580748	483.02804565764023	566.6426165869972	-3.2519083969465647	7.007633587786259	0.7022900763358778	-0.037481259370314844	0.4422788605697151	0.06746626686656672	
1.7089476614439146E12	2.5	-6.380434782608695	3.5652173913043477	3957.5091575091574	128.0	128.0	-0.9735698668443998	28.97933590165805	28.00576603481365	483.0296323334733	566.6643251972587	-0.8549618320610687	6.244274809160305	0.8854961832061068	-0.04497751124437781	0.4452773613193403	0.07796101949025487	
1.7089476614634468E12	2.4891304347826084	-6.358695652173913	3.5	3958.974358974359	128.0	128.0	-0.9747238129048125	28.993327497640554	28.01860368473574	483.03814268566884	566.6707440222197	-0.7633587786259541	7.816793893129771	1.0229007633587786	-0.041979010494752625	0.4257871064467766	0.06596701649175413	
1.708947661482979E12	2.4891304347826084	-6.33695652173913	3.5760869565217392	3934.065934065934	128.0	128.0	-0.957991595028829	28.998448133283635	28.040456538254805	483.0411717940774	566.6708161438485	-2.916030534351145	6.076335877862595	0.916030534351145	-0.041979010494752625	0.42278860569715143	0.06896551724137931	
1.7089476615025112E12	2.4891304347826084	-6.423913043478261	3.5543478260869565	3957.5091575091574	128.0	128.0	-0.957991595028829	28.989577172944212	28.031585577915383	483.03287780676817	566.6612960888501	-3.8931297709923665	6.0	1.0381679389312977	-0.029985007496251874	0.43178410794602695	0.08095952023988005	
1.7089476615220435E12	2.510869565217391	-6.413043478260869	3.5869565217391304	3956.043956043956	128.0	128.0	-0.9527267161281964	28.970825549462507	28.01809883333431	483.039368753358	566.6452850872619	-2.900763358778626	6.564885496183206	0.6564885496183206	-0.029985007496251874	0.43478260869565216	0.07496251874062969	
1.7089476615415757E12	2.543478260869565	-6.380434782608695	3.608695652173913	3936.9963369963366	128.0	128.0	-0.9592897843467932	29.00472271498713	28.045432930640334	483.03814268566884	566.6292019640448	-2.8091603053435112	6.748091603053435	0.5190839694656488	-0.04047976011994003	0.43928035982008995	0.05997001499250375	
1.708947661561108E12	2.532608695652174	-6.391304347826087	3.608695652173913	3958.974358974359	128.0	128.0	-0.9606600952935334	29.03912473191318	28.078464636619646	483.03684449635085	566.6263892205226	-2.4122137404580153	7.022900763358779	0.061068702290076333	-0.05397301349325337	0.4287856071964018	0.06146926536731634	
1.7089476615806401E12	2.5217391304347827	-6.380434782608695	3.5760869565217392	3958.974358974359	128.0	128.0	-0.9385908768881414	29.080955276603138	28.142364399714996	483.03417599608616	566.617878868327	-2.045801526717557	7.511450381679389	0.183206106870229	-0.04047976011994003	0.424287856071964	0.05997001499250375	
1.7089476616001724E12	2.5	-6.3478260869565215	3.5978260869565215	3957.5091575091574	128.0	128.0	-0.9204883480654178	29.048644786911584	28.128156438846165	483.02999294161714	566.6312213696506	-1.8473282442748091	7.343511450381679	0.2595419847328244	-0.025487256371814093	0.43178410794602695	0.06746626686656672	
1.7089476616197046E12	2.4891304347826084	-6.358695652173913	3.608695652173913	3958.974358974359	128.0	128.0	-0.951428526810232	28.951496952950595	28.000068426140363	483.02833414415534	566.6651185351752	-3.2061068702290076	6.809160305343511	0.32061068702290074	-0.041979010494752625	0.4332833583208396	0.08395802098950525	
1.7089476616392368E12	2.4782608695652173	-6.369565217391304	3.5978260869565215	3934.065934065934	128.0	128.0	-0.971117731466023	28.90187727235285	27.930759540886825	483.0330941716545	566.6904332268755	-4.030534351145038	6.763358778625954	0.16793893129770993	-0.046476761619190406	0.4332833583208396	0.06896551724137931	
1.708947661658769E12	2.5	-6.358695652173913	3.5543478260869565	3957.5091575091574	128.0	128.0	-0.9757335157076736	28.88233231095461	27.906598795246936	483.0307141579049	566.6873319968381	-3.465648854961832	6.7328244274809155	0.22900763358778625	-0.04497751124437781	0.4452773613193403	0.06746626686656672	
1.7089476616783013E12	2.5	-6.380434782608695	3.5978260869565215	3958.974358974359	128.0	128.0	-1.1398102211725976	28.95640122370735	27.81659100253475	483.0332384149121	566.7606796933031	-2.427480916030534	6.549618320610687	0.6259541984732824	-0.034482758620689655	0.43628185907046474	0.06596701649175413	
1.7089476616978335E12	2.5	-6.358695652173913	3.543478260869565	3938.461538461538	128.0	128.0	-0.5749536246006042	29.582849691253866	29.007896066653263	483.0288389955567	566.7468323405782	-2.030534351145038	6.244274809160305	0.3511450381679389	-0.037481259370314844	0.43928035982008995	0.0704647676161919	
1.708947661717366E12	2.5217391304347827	-6.380434782608695	3.5217391304347827	3958.974358974359	128.0	128.0	-0.5735833136538642	28.846776347968145	28.273193034314282	483.0348972123739	566.6297068154463	-0.3053435114503817	6.458015267175572	0.8091603053435115	-0.026986506746626684	0.43628185907046474	0.07646176911544228	
1.7089476617368982E12	2.5543478260869565	-6.293478260869565	3.358695652173913	3957.5091575091574	128.0	128.0	-0.9585685680590353	28.71443315916457	27.755864591105535	483.0364117665782	566.8184491179525	-1.2061068702290076	3.282442748091603	0.9618320610687022	-0.029985007496251874	0.4422788605697151	0.06446776611694152	
1.7089476617564304E12	2.5	-6.282608695652174	3.967391304347826	3957.5091575091574	128.0	128.0	-0.9861190302513875	28.880312905348887	27.8941938750975	483.0349693340027	566.6939671866855	-5.938931297709924	7.801526717557252	0.6717557251908397	-0.04497751124437781	0.43178410794602695	0.06746626686656672	
1.7089476617759626E12	2.467391304347826	-6.478260869565217	3.619565217391304	3958.974358974359	128.0	128.0	-0.9817196108960642	28.89293419038465	27.911214579488586	483.0304256713898	566.6721864547952	-9.938931297709923	5.816793893129771	0.6870229007633587	-0.047976011994003	0.43178410794602695	0.0704647676161919	
1.7089476617954949E12	2.543478260869565	-6.358695652173913	3.4456521739130435	3935.531135531135	128.0	128.0	-0.9750122994199156	28.88745294659769	27.912440647177775	483.0307141579049	566.6633154944558	-1.618320610687023	7.694656488549618	0.564885496183206	-0.04497751124437781	0.4452773613193403	0.0704647676161919	
1.708947661815027E12	2.5	-6.293478260869565	3.608695652173913	3960.43956043956	128.0	128.0	-0.9877778277132306	28.937793843483192	27.95001601576996	483.035185698889	566.6733404008556	1.648854961832061	7.938931297709924	0.5954198473282443	-0.031484257871064465	0.4407796101949025	0.08695652173913043	
1.7089476618345593E12	2.5	-6.33695652173913	3.543478260869565	3957.5091575091574	128.0	128.0	-0.9843159895319927	28.960223670032462	27.97590768050047	483.02847838741286	566.6728355494542	-5.9541984732824424	6.3969465648854955	0.6564885496183206	-0.04047976011994003	0.43178410794602695	0.08545727136431784	
1.7089476618540916E12	2.4891304347826084	-6.423913043478261	3.641304347826087	3936.9963369963366	128.0	128.0	-0.9799165701766694	28.967291589652493	27.987375019475824	483.02948809021575	566.665839751463	-9.709923664122137	6.183206106870228	1.114503816793893	-0.04947526236881559	0.43628185907046474	0.08395802098950525	
1.7089476618736238E12	2.5	-6.467391304347826	3.6630434782608696	3958.974358974359	128.0	128.0	-0.9744353263897093	28.97746073930988	28.00302541292017	483.02292502199714	566.6606469941911	-7.022900763358779	6.33587786259542	1.0687022900763359	-0.022488755622188904	0.43478260869565216	0.06446776611694152	
1.708947661893156E12	2.5543478260869565	-6.456521739130435	3.4782608695652173	3958.974358974359	128.0	128.0	-0.9466684993110299	28.971907373894144	28.025238874583113	483.02047288661873	566.7082472691831	-5.480916030534351	5.435114503816794	0.9007633587786259	-0.046476761619190406	0.4482758620689655	0.07346326836581708	
1.7089476619126882E12	2.532608695652174	-6.423913043478261	3.5217391304347827	3957.5091575091574	128.0	128.0	-0.9245992809056379	28.975874063476812	28.051274782571173	483.0225644138533	566.7280085954677	-4.961832061068702	6.1679389312977095	0.47328244274809156	-0.037481259370314844	0.43478260869565216	0.07796101949025487	
1.7089476619322205E12	2.532608695652174	-6.423913043478261	3.4782608695652173	3957.5091575091574	128.0	128.0	-0.909742225377825	28.995923876276482	28.086181650898656	483.02350199502735	566.7345716636863	-4.366412213740458	6.198473282442748	0.6259541984732824	-0.034482758620689655	0.4257871064467766	0.07346326836581708	
1.7089476619517527E12	2.5760869565217392	-6.358695652173913	3.5217391304347827	3932.6007326007325	128.0	128.0	-0.9437836341599982	28.99303901112545	28.04925537696545	483.0224201705957	566.7058672554335	-1.465648854961832	7.480916030534351	0.8854961832061068	-0.037481259370314844	0.42728635682158916	0.07796101949025487	
1.708947661971285E12	2.5652173913043477	-6.315217391304348	3.5978260869565215	3958.974358974359	128.0	128.0	-0.9709734882084714	28.976378914878243	28.00540542666977	483.02227592733817	566.6896398889589	-2.229007633587786	7.312977099236641	0.7480916030534351	-0.029985007496251874	0.43178410794602695	0.07496251874062969	
1.7089476619908171E12	2.510869565217391	-6.369565217391304	3.5869565217391304	3957.5091575091574	128.0	128.0	-0.9610928250661881	28.919114341630262	27.958021516564074	483.02407896805755	566.6809131718771	-5.511450381679389	7.480916030534351	0.33587786259541985	-0.046476761619190406	0.43628185907046474	0.06596701649175413	
1.7089476620103494E12	2.510869565217391	-6.423913043478261	3.4565217391304346	3934.065934065934	128.0	128.0	-0.9737141101019514	28.904473650988777	27.930759540886825	483.01657831866487	566.685745321005	-5.2824427480916025	6.366412213740458	0.3511450381679389	-0.04047976011994003	0.43178410794602695	0.07496251874062969	
1.7089476620298816E12	2.510869565217391	-6.358695652173913	3.5760869565217392	3958.974358974359	128.0	128.0	-0.9603716087784302	28.89394389318751	27.93357228440908	483.01657831866487	566.7143054860003	-2.427480916030534	6.916030534351145	0.549618320610687	-0.029985007496251874	0.43178410794602695	0.08095952023988005	
1.7089476620494138E12	2.5217391304347827	-6.369565217391304	3.5217391304347827	3958.974358974359	128.0	128.0	-0.985614178849957	28.91262339504044	27.927009216190484	483.0157849807483	566.717911567439	-2.1068702290076335	7.419847328244274	0.7938931297709924	-0.04047976011994003	0.4197901049475262	0.0704647676161919	
1.708947662068946E12	2.543478260869565	-6.380434782608695	3.434782608695652	3957.5091575091574	128.0	128.0	-0.9884990440009885	28.926254382879065	27.937755338878077	483.02011227847487	566.7068048366076	-3.969465648854962	7.648854961832061	0.7022900763358778	-0.038980509745127435	0.4407796101949025	0.07946026986506746	
1.7089476620884783E12	2.532608695652174	-6.4021739130434785	3.532608695652174	3957.5091575091574	128.0	128.0	-0.9900857198340559	28.925533166591308	27.93544744675725	483.0172995349526	566.7019005658508	-4.442748091603053	7.694656488549618	0.7175572519083969	-0.05247376311844078	0.43928035982008995	0.08095952023988005	
1.7089476621080107E12	2.5217391304347827	-6.445652173913043	3.532608695652174	3957.5091575091574	128.0	128.0	-0.9842438679032169	28.915291895305145	27.93104802740193	483.01982379195977	566.7010351063055	-5.236641221374046	7.32824427480916	0.16793893129770993	-0.038980509745127435	0.43628185907046474	0.08395802098950525	
1.708947662127543E12	2.510869565217391	-6.478260869565217	3.5543478260869565	3957.5091575091574	128.0	128.0	-0.986263273508939	28.972484346924347	27.986221073415408	483.02364623828487	566.7187049053556	-5.374045801526718	8.0	0.6106870229007634	-0.046476761619190406	0.42278860569715143	0.07346326836581708	
1.7089476621470752E12	2.5	-6.445652173913043	3.467391304347826	3957.5091575091574	128.0	128.0	-0.9875614628269033	29.002775431010182	28.01521396818328	483.0250886708604	566.7078145394105	-4.625954198473282	7.740458015267175	0.4427480916030534	-0.041979010494752625	0.4407796101949025	0.08395802098950525	
1.7089476621666074E12	2.5217391304347827	-6.391304347826087	3.510869565217391	3935.531135531135	128.0	128.0	-0.9455866748793931	29.012439729266138	28.066853054386744	483.02169895430796	566.7211570407339	-2.1526717557251906	7.557251908396946	0.2900763358778626	-0.034482758620689655	0.4332833583208396	0.07646176911544228	
1.7089476621861396E12	2.510869565217391	-6.369565217391304	3.532608695652174	3958.974358974359	128.0	128.0	-0.9354896468507823	28.99650084930669	28.061011202455905	483.0235741166561	566.7580111930384	-1.7862595419847327	7.358778625954198	0.47328244274809156	-0.037481259370314844	0.43178410794602695	0.06446776611694152	
1.7089476622056719E12	2.532608695652174	-6.380434782608695	3.543478260869565	3958.974358974359	128.0	128.0	-0.9680886230574398	28.900218474891005	27.932129851833565	483.0170110484375	566.7893119799271	-3.801526717557252	7.129770992366412	0.9618320610687022	-0.038980509745127435	0.44377811094452774	0.07646176911544228	
1.708947662225204E12	2.532608695652174	-6.391304347826087	3.5217391304347827	3957.5091575091574	128.0	128.0	-0.9765989752529831	28.822254994184377	27.845656018931393	483.01996803521735	566.7901053178437	-4.259541984732825	7.114503816793893	0.7633587786259541	-0.04947526236881559	0.43628185907046474	0.07646176911544228	
1.7089476622447363E12	2.5217391304347827	-6.369565217391304	3.532608695652174	3958.974358974359	128.0	128.0	-0.9822244622974947	28.826077440509493	27.843852978212	483.0273965629812	566.7795755600424	-2.946564885496183	7.083969465648854	0.21374045801526717	-0.046476761619190406	0.44377811094452774	0.07946026986506746	
1.7089476622642686E12	2.510869565217391	-6.3478260869565215	3.510869565217391	3936.9963369963366	128.0	128.0	-1.1118991508363667	28.91384946272963	27.801950311893265	483.0307141579049	566.8180163881799	-1.618320610687023	7.221374045801526	0.366412213740458	-0.047976011994003	0.43928035982008995	0.07796101949025487	
1.7089476622838008E12	2.4891304347826084	-6.369565217391304	3.5652173913043477	3957.5091575091574	128.0	128.0	-0.4908598054480321	29.581623623564678	29.090763818116645	483.0225644138533	566.8223436859064	-2.198473282442748	7.435114503816793	0.5954198473282443	-0.034482758620689655	0.44377811094452774	0.06146926536731634	
1.708947662303333E12	2.5217391304347827	-6.391304347826087	3.4456521739130435	3958.974358974359	128.0	128.0	-0.5858439905457485	28.690200291895902	28.104356301350155	483.0242232113151	566.7675312480368	-2.351145038167939	7.022900763358779	0.8549618320610687	-0.037481259370314844	0.43928035982008995	0.06746626686656672	
1.7089476623228652E12	2.5869565217391304	-6.3478260869565215	3.2717391304347827	3934.065934065934	128.0	128.0	-0.9572703787410711	28.684646926480166	27.727376547739095	483.02941596858693	566.903552639908	-2.595419847328244	3.83206106870229	0.5190839694656488	-0.046476761619190406	0.4407796101949025	0.07946026986506746	
1.7089476623423975E12	2.4565217391304346	-6.326086956521739	3.967391304347826	3958.974358974359	128.0	128.0	-0.9799165701766694	28.8221828725556	27.84226630237893	483.024583819459	566.7844077091703	-5.9541984732824424	8.702290076335878	0.38167938931297707	-0.03298350824587706	0.43178410794602695	0.06746626686656672	
1.7089476623619297E12	2.5	-6.478260869565217	3.4565217391304346	3957.5091575091574	128.0	128.0	-0.9685213528300946	28.815619804337004	27.84709845150691	483.02703595483734	566.7606796933031	-9.893129770992367	5.908396946564885	0.4427480916030534	-0.041979010494752625	0.4287856071964018	0.06896551724137931	
1.708947662381462E12	2.5543478260869565	-6.3478260869565215	3.4130434782608696	3956.043956043956	128.0	128.0	-0.9773923131695168	28.829611400319507	27.85221908714999	483.02040076499	566.7301722443309	-3.16030534351145	8.290076335877862	0.9923664122137404	-0.046476761619190406	0.42278860569715143	0.07346326836581708	
1.7089476624009941E12	2.5217391304347827	-6.260869565217391	3.5543478260869565	3957.5091575091574	128.0	128.0	-0.9832341651003558	28.867547377055573	27.884313211955217	483.02205956245183	566.7595257472427	0.9007633587786259	8.320610687022901	1.0076335877862594	-0.041979010494752625	0.4332833583208396	0.07946026986506746	
1.7089476624205264E12	2.5	-6.369565217391304	3.4891304347826084	3939.9267399267396	128.0	128.0	-0.9875614628269033	28.887164460082587	27.899602997255684	483.023285630141	566.7448850566012	-5.129770992366412	6.3969465648854955	0.7480916030534351	-0.037481259370314844	0.4497751124437781	0.08545727136431784	
1.7089476624400586E12	2.467391304347826	-6.434782608695652	3.5978260869565215	3957.5091575091574	128.0	128.0	-0.972127434268884	28.897117244853646	27.924989810584762	483.0259541304057	566.7259170682332	-8.48854961832061	5.984732824427481	0.6717557251908397	-0.029985007496251874	0.424287856071964	0.06746626686656672	
1.7089476624595908E12	2.510869565217391	-6.456521739130435	3.532608695652174	3957.5091575091574	128.0	128.0	-0.9590734194604659	28.901949393981624	27.942875974521158	483.02335775176977	566.7229600814534	-7.419847328244274	5.572519083969466	0.6870229007633587	-0.037481259370314844	0.43178410794602695	0.08095952023988005	
1.7089476624791233E12	2.5543478260869565	-6.467391304347826	3.4456521739130435	3934.065934065934	128.0	128.0	-0.9378696606003835	28.91969131466047	27.981821654060084	483.02054500824755	566.7818113305344	-4.748091603053435	5.740458015267175	0.9770992366412213	-0.041979010494752625	0.43628185907046474	0.08995502248875561	
1.7089476624986555E12	2.5543478260869565	-6.445652173913043	3.4456521739130435	3958.974358974359	128.0	128.0	-0.9057755357951566	28.907502759397364	28.001727223602206	483.0161455888922	566.8064769275758	-3.8625954198473282	5.709923664122138	0.6717557251908397	-0.037481259370314844	0.43478260869565216	0.0704647676161919	
1.7089476625181877E12	2.5543478260869565	-6.413043478260869	3.4565217391304346	3958.974358974359	128.0	128.0	-0.8863748176544688	28.919258584887817	28.032883767233347	483.0225644138533	566.8108042253023	-2.091603053435114	6.3206106870229	0.3053435114503817	-0.04947526236881559	0.4407796101949025	0.08395802098950525	
1.70894766253772E12	2.5869565217391304	-6.3478260869565215	3.4456521739130435	3956.043956043956	128.0	128.0	-0.9338308493889391	28.92949985617398	27.99566900678504	483.0250886708604	566.7789985870122	-1.297709923664122	7.221374045801526	0.5190839694656488	-0.04947526236881559	0.4332833583208396	0.07346326836581708	
1.7089476625572522E12	2.5652173913043477	-6.33695652173913	3.5543478260869565	3958.974358974359	128.0	128.0	-0.956981892225968	28.901228177693866	27.944246285467898	483.019751670331	566.7637088017117	-2.5038167938931295	7.206106870229007	0.8854961832061068	-0.037481259370314844	0.4422788605697151	0.07496251874062969	
1.7089476625767844E12	2.532608695652174	-6.413043478260869	3.5217391304347827	3939.9267399267396	128.0	128.0	-0.9628958657855828	28.87338922898641	27.91049336320083	483.02364623828487	566.7500056922443	-4.122137404580153	6.946564885496183	0.33587786259541985	-0.029985007496251874	0.43928035982008995	0.0704647676161919	
1.7089476625963167E12	2.532608695652174	-6.413043478260869	3.4565217391304346	3957.5091575091574	128.0	128.0	-0.9595782708618964	28.869927390805174	27.910349119943277	483.02220380570935	566.7460390026616	-2.213740458015267	5.7251908396946565	0.33587786259541985	-0.031484257871064465	0.4407796101949025	0.06896551724137931	
1.7089476626158489E12	2.510869565217391	-6.326086956521739	3.5652173913043477	3957.5091575091574	128.0	128.0	-0.9535921756735058	28.862498863041267	27.90890668736776	483.02278077873956	566.7665936668627	-1.3282442748091603	6.5038167938931295	0.41221374045801523	-0.04047976011994003	0.43928035982008995	0.0704647676161919	
1.708947662635381E12	2.543478260869565	-6.3478260869565215	3.434782608695652	3935.531135531135	128.0	128.0	-0.9815032460097368	28.886659608681157	27.90515636267142	483.0214825894216	566.7765464516337	-2.6564885496183206	6.549618320610687	0.7633587786259541	-0.047976011994003	0.43178410794602695	0.08845577211394302	
1.7089476626549133E12	2.543478260869565	-6.4021739130434785	3.5217391304347827	3958.974358974359	128.0	128.0	-0.9746516912760367	28.887885676370345	27.91323398509431	483.02025652173245	566.7573620983794	-4.519083969465648	7.083969465648854	0.7480916030534351	-0.041979010494752625	0.42278860569715143	0.08395802098950525	
1.7089476626744456E12	2.5217391304347827	-6.391304347826087	3.532608695652174	3958.974358974359	128.0	128.0	-0.9812147594946337	28.901083934436315	27.91986917494168	483.02278077873956	566.7515923680774	-5.0534351145038165	6.977099236641221	0.549618320610687	-0.029985007496251874	0.43478260869565216	0.0704647676161919	
1.7089476626939778E12	2.5217391304347827	-6.4021739130434785	3.5217391304347827	3957.5091575091574	128.0	128.0	-0.9815032460097368	28.898559677429162	27.917056431419425	483.0225644138533	566.7404856372459	-4.015267175572519	6.854961832061068	0.8091603053435115	-0.034482758620689655	0.4332833583208396	0.06896551724137931	
1.70894766271351E12	2.5217391304347827	-6.423913043478261	3.467391304347826	3960.43956043956	128.0	128.0	-0.9628958657855828	28.901588785837745	27.938692920052162	483.0161455888922	566.7289461766418	-4.1679389312977095	7.404580152671755	0.732824427480916	-0.046476761619190406	0.4407796101949025	0.07946026986506746	
1.7089476627330422E12	2.5	-6.434782608695652	3.4891304347826084	3942.8571428571427	128.0	128.0	-0.9722716775264356	28.936207167650124	27.96393549012369	483.02278077873956	566.7290904198993	-3.49618320610687	7.022900763358779	0.6870229007633587	-0.05247376311844078	0.43478260869565216	0.08845577211394302	
1.7089476627525745E12	2.5	-6.4021739130434785	3.4565217391304346	3958.974358974359	128.0	128.0	-0.972488042412763	29.00313603915406	28.030647996741298	483.02076137313384	566.7460390026616	-1.9541984732824427	6.748091603053435	0.48854961832061067	-0.034482758620689655	0.4407796101949025	0.06146926536731634	
1.7089476627721067E12	2.510869565217391	-6.380434782608695	3.5	3957.5091575091574	128.0	128.0	-0.9422690799557066	29.014242769985533	28.071973690029825	483.0224201705957	566.7354371232316	-1.6793893129770991	7.099236641221374	1.0381679389312977	-0.03298350824587706	0.42728635682158916	0.05997001499250375	
1.708947662791639E12	2.532608695652174	-6.380434782608695	3.532608695652174	3934.065934065934	128.0	128.0	-0.933181754729957	28.99852025491241	28.065338500182452	483.018453481013	566.7596699905002	-3.801526717557252	6.580152671755725	0.6717557251908397	-0.041979010494752625	0.4332833583208396	0.06596701649175413	
1.7089476628111711E12	2.5217391304347827	-6.391304347826087	3.5217391304347827	3958.974358974359	128.0	128.0	-0.9751565426774672	28.910820354321046	27.93566381164358	483.0136213318851	566.7707767213317	-3.9847328244274807	6.6106870229007635	0.6412213740458015	-0.029985007496251874	0.4452773613193403	0.09295352323838081	
1.7089476628307034E12	2.543478260869565	-6.380434782608695	3.4782608695652173	3957.5091575091574	128.0	128.0	-0.9744353263897093	28.878149256485614	27.903713930095904	483.0217710759367	566.7632039503103	-3.5725190839694654	6.564885496183206	0.48854961832061067	-0.03298350824587706	0.4452773613193403	0.07796101949025487	
1.7089476628502358E12	2.532608695652174	-6.380434782608695	3.467391304347826	3956.043956043956	128.0	128.0	-0.9742910831321577	28.876418337394995	27.902127254262837	483.0214825894216	566.7520972194787	-3.3893129770992365	6.793893129770992	0.7480916030534351	-0.04497751124437781	0.4452773613193403	0.0704647676161919	
1.708947662869768E12	2.510869565217391	-6.4021739130434785	3.4239130434782608	3957.5091575091574	128.0	128.0	-1.1587782095406307	28.88319777049992	27.724419560959287	483.02141046779286	566.783542249625	-4.076335877862595	6.885496183206107	0.6717557251908397	-0.05397301349325337	0.4332833583208396	0.0944527736131934	
1.7089476628893003E12	2.5217391304347827	-6.413043478260869	3.467391304347826	3944.322344322344	128.0	128.0	-0.3101230037359004	29.652374941393727	29.342251937657828	483.008500696242	566.8177279016647	-3.6488549618320607	7.068702290076335	0.8702290076335878	-0.025487256371814093	0.43928035982008995	0.06746626686656672	
1.7089476629088325E12	2.543478260869565	-6.413043478260869	3.434782608695652	3957.5091575091574	128.0	128.0	-0.2967805024123791	28.928490153371115	28.631709650958737	483.0198959135885	566.6665609677507	-2.4580152671755724	7.358778625954198	0.7786259541984732	-0.038980509745127435	0.4512743628185907	0.05847076461769115	
1.7089476629283647E12	2.5978260869565215	-6.326086956521739	3.2282608695652173	3957.5091575091574	128.0	128.0	-0.9616697980963944	28.781722638812383	27.820052840715988	483.0182371161267	566.8629481629072	-2.610687022900763	5.740458015267175	0.48854961832061067	-0.047976011994003	0.43178410794602695	0.08095952023988005	
1.708947662947897E12	2.4891304347826084	-6.315217391304348	3.8369565217391304	3932.6007326007325	128.0	128.0	-0.9698916637768346	28.894592987846494	27.92470132406966	483.0170110484375	566.7655839640598	-4.625954198473282	8.274809160305344	0.549618320610687	-0.046476761619190406	0.4407796101949025	0.05847076461769115	
1.7089476629674292E12	2.5	-6.489130434782608	3.358695652173913	3958.974358974359	128.0	128.0	-0.9728486505566419	28.900218474891005	27.927369824334363	483.01441466980157	566.75555905766	-9.129770992366412	5.343511450381679	0.33587786259541985	-0.05247376311844078	0.40929535232383807	0.07796101949025487	
1.7089476629869614E12	2.543478260869565	-6.380434782608695	3.4456521739130435	3958.974358974359	128.0	128.0	-0.9698195421480588	28.925028315189877	27.955208773041818	483.01189041279446	566.7311098255051	-3.7557251908396947	8.549618320610687	0.5954198473282443	-0.026986506746626684	0.43628185907046474	0.05847076461769115	
1.7089476630064937E12	2.5217391304347827	-6.315217391304348	3.467391304347826	3958.974358974359	128.0	128.0	-0.9705407584358167	28.934692613445833	27.964151855010016	483.01015949370384	566.7356534881179	0.4427480916030534	8.458015267175572	1.465648854961832	-0.034482758620689655	0.4332833583208396	0.07646176911544228	
1.708947663026026E12	2.5217391304347827	-6.4021739130434785	3.4130434782608696	3958.974358974359	128.0	128.0	-0.9663577039668207	28.96476733264534	27.99840962867852	483.0161455888922	566.7203637028174	-5.435114503816794	6.977099236641221	0.9007633587786259	-0.041979010494752625	0.4407796101949025	0.08395802098950525	
1.708947663045558E12	2.4565217391304346	-6.456521739130435	3.5	3958.974358974359	128.0	128.0	-0.9594340276043448	28.97096979272006	28.011535765115713	483.01693892680873	566.7035593633127	-8.458015267175572	6.412213740458015	1.0076335877862594	-0.04497751124437781	0.43478260869565216	0.07796101949025487	
1.7089476630650903E12	2.510869565217391	-6.478260869565217	3.467391304347826	3958.974358974359	128.0	128.0	-0.9586406896878111	28.99267840298157	28.03403771329376	483.01513588608935	566.7013235928206	-6.854961832061068	5.893129770992366	0.6412213740458015	-0.038980509745127435	0.43628185907046474	0.06896551724137931	
1.7089476630846226E12	2.543478260869565	-6.423913043478261	3.4239130434782608	3958.974358974359	128.0	128.0	-0.9358502549946612	28.99989056585915	28.06404031086449	483.01217889930956	566.7273595008087	-4.687022900763359	5.984732824427481	0.7938931297709924	-0.038980509745127435	0.4332833583208396	0.07946026986506746	
1.7089476631041548E12	2.5760869565217392	-6.423913043478261	3.3804347826086953	3934.065934065934	128.0	128.0	-0.9163774152251978	28.99952995771527	28.083152542490073	483.0103758585901	566.780008289815	-4.748091603053435	6.030534351145038	0.3511450381679389	-0.037481259370314844	0.4422788605697151	0.06746626686656672	
1.708947663123687E12	2.5652173913043477	-6.434782608695652	3.4130434782608696	3960.43956043956	128.0	128.0	-0.8729601947021717	29.013233067182668	28.140272872480498	483.01542437260446	566.7844077091703	-2.610687022900763	6.641221374045801	0.549618320610687	-0.04497751124437781	0.4422788605697151	0.07496251874062969	
1.7089476631432192E12	2.5760869565217392	-6.369565217391304	3.4130434782608696	3960.43956043956	128.0	128.0	-0.8972651835996132	29.02181554100699	28.124550357407376	483.0178765079828	566.758155436296	-1.4961832061068703	6.916030534351145	0.4580152671755725	-0.041979010494752625	0.43628185907046474	0.07346326836581708	
1.7089476631627515E12	2.5543478260869565	-6.3478260869565215	3.4456521739130435	3956.043956043956	128.0	128.0	-0.9467406209398057	28.99938571445772	28.052645093517913	483.01398194002894	566.729811636187	-3.099236641221374	6.99236641221374	0.7022900763358778	-0.041979010494752625	0.4332833583208396	0.06596701649175413	
1.7089476631822837E12	2.543478260869565	-6.4021739130434785	3.434782608695652	3957.5091575091574	128.0	128.0	-0.9532315675296269	28.981788037036427	28.0285564695068	483.01073646673404	566.7242582707713	-4.625954198473282	6.6106870229007635	0.48854961832061067	-0.04047976011994003	0.43478260869565216	0.0704647676161919	
1.708947663201816E12	2.5543478260869565	-6.423913043478261	3.4130434782608696	3958.974358974359	128.0	128.0	-0.9416199852967245	28.970897671091283	28.029277685794558	483.0097988855599	566.7179836890679	-3.282442748091603	6.076335877862595	0.3511450381679389	-0.046476761619190406	0.43628185907046474	0.06896551724137931	
1.7089476632213484E12	2.5543478260869565	-6.33695652173913	3.4782608695652173	3958.974358974359	128.0	128.0	-0.9412593771528456	28.977893469082534	28.036634091929688	483.0072746285528	566.7316867985353	-1.7404580152671756	6.6106870229007635	0.5954198473282443	-0.04497751124437781	0.43178410794602695	0.07796101949025487	
1.7089476632408806E12	2.5652173913043477	-6.369565217391304	3.391304347826087	3957.5091575091574	128.0	128.0	-0.9588570545741385	28.99202930832259	28.03317225374845	483.0119625344232	566.7417838265638	-2.7938931297709924	6.137404580152672	0.6717557251908397	-0.026986506746626684	0.4512743628185907	0.07646176911544228	
1.7089476632604128E12	2.5652173913043477	-6.423913043478261	3.4782608695652173	3932.6007326007325	128.0	128.0	-0.969747420519283	29.007823945024487	28.038076524505204	483.02220380570935	566.7321195283079	-3.6946564885496183	7.083969465648854	0.38167938931297707	-0.038980509745127435	0.4407796101949025	0.07346326836581708	
1.708947663279945E12	2.5652173913043477	-6.434782608695652	3.4456521739130435	3958.974358974359	128.0	128.0	-0.9758777589652252	29.030253771573758	28.054376012608532	483.0224201705957	566.7172624727801	-3.7557251908396947	6.748091603053435	0.7938931297709924	-0.041979010494752625	0.4332833583208396	0.08395802098950525	
1.7089476632994773E12	2.5760869565217392	-6.413043478260869	3.4565217391304346	3958.974358974359	128.0	128.0	-0.9751565426774672	29.038475637254198	28.06331909457673	483.01073646673404	566.7207964325901	-3.3893129770992365	7.038167938931298	1.0229007633587786	-0.031484257871064465	0.4287856071964018	0.06596701649175413	
1.7089476633190095E12	2.5652173913043477	-6.413043478260869	3.4456521739130435	3957.5091575091574	128.0	128.0	-0.9692425691178524	29.053404814410786	28.084162245292934	483.0140540616577	566.7100503099025	-3.0076335877862594	6.946564885496183	1.1450381679389312	-0.03298350824587706	0.4497751124437781	0.06446776611694152	
1.7089476633385417E12	2.5217391304347827	-6.413043478260869	3.434782608695652	3932.6007326007325	128.0	128.0	-0.9670789202545786	29.061338193576123	28.094259273321544	483.0152801293469	566.7331292311108	-2.045801526717557	6.6106870229007635	0.916030534351145	-0.04497751124437781	0.43478260869565216	0.06746626686656672	
1.708947663358074E12	2.543478260869565	-6.4021739130434785	3.4239130434782608	3957.5091575091574	128.0	128.0	-0.9711898530947988	29.073598870468008	28.10240901737321	483.015568615862	566.7482026515249	-1.8625954198473282	6.748091603053435	1.2213740458015268	-0.04947526236881559	0.43628185907046474	0.06146926536731634	
1.7089476633776062E12	2.5543478260869565	-6.391304347826087	3.4456521739130435	3957.5091575091574	128.0	128.0	-0.9791953538889115	29.148028391364623	28.16883303747571	483.01412618328646	566.7461111242905	-1.618320610687023	6.641221374045801	1.2671755725190839	-0.026986506746626684	0.43628185907046474	0.05847076461769115	
1.7089476633971384E12	2.5760869565217392	-6.4021739130434785	3.467391304347826	3957.5091575091574	128.0	128.0	-0.9598667573769996	29.19663836915951	28.23677161178251	483.0172995349526	566.7294510280432	-2.4427480916030535	6.8396946564885495	1.0534351145038168	-0.03298350824587706	0.43178410794602695	0.07496251874062969	
1.7089476634166707E12	2.532608695652174	-6.380434782608695	3.434782608695652	3934.065934065934	128.0	128.0	-0.9413314987816214	29.20276870760545	28.26143720882383	483.0090055476434	566.7161806483484	-2.33587786259542	6.534351145038167	0.8702290076335878	-0.046476761619190406	0.4332833583208396	0.07646176911544228	
1.708947663436203E12	2.5543478260869565	-6.369565217391304	3.4456521739130435	3958.974358974359	128.0	128.0	-0.9655643660502871	29.094153534669108	28.12858916861882	483.01939106218714	566.7440917186847	-1.9083969465648853	6.015267175572519	0.8549618320610687	-0.04497751124437781	0.424287856071964	0.07796101949025487	
1.708947663455735E12	2.532608695652174	-6.380434782608695	3.4782608695652173	3958.974358974359	128.0	128.0	-0.972127434268884	29.061626680091226	28.089499245822342	483.0178765079828	566.7271431359223	-2.427480916030534	6.0	0.9618320610687022	-0.05547226386806597	0.43928035982008995	0.07796101949025487	
1.7089476634752673E12	2.5543478260869565	-6.391304347826087	3.4782608695652173	3958.974358974359	128.0	128.0	-0.975589272450122	29.051169043918737	28.075579771468615	483.0137655751426	566.7435868672833	-2.8091603053435112	6.183206106870228	1.2519083969465647	-0.05247376311844078	0.43478260869565216	0.08095952023988005	
1.7089476634947996E12	2.5217391304347827	-6.380434782608695	3.4456521739130435	3958.974358974359	128.0	128.0	-1.1149282592449499	29.05362117929711	27.938692920052162	483.0170110484375	566.7596699905002	-2.8244274809160306	5.908396946564885	1.2519083969465647	-0.041979010494752625	0.4332833583208396	0.06896551724137931	
1.7089476635143318E12	2.510869565217391	-6.4021739130434785	3.467391304347826	3951.6483516483513	128.0	128.0	-0.5611783935044281	29.659803469157634	29.098625075653207	483.0105201018477	566.826021888974	-2.2748091603053435	6.534351145038167	0.8396946564885496	-0.05997001499250375	0.43928035982008995	0.0704647676161919	
1.708947663533864E12	2.5543478260869565	-6.423913043478261	3.4130434782608696	3957.5091575091574	128.0	128.0	-0.12361647172170541	29.28152552622861	29.157909054506906	483.0161455888922	566.7312540687626	-2.1221374045801524	6.198473282442748	1.099236641221374	-0.04497751124437781	0.4422788605697151	0.0704647676161919	
1.7089476635533962E12	2.543478260869565	-6.3478260869565215	3.293478260869565	3958.974358974359	128.0	128.0	-0.7823033073310027	28.74039694552385	27.95809363819285	483.01722741332384	566.8699439608985	-1.618320610687023	6.763358778625954	1.2366412213740459	-0.025487256371814093	0.43178410794602695	0.08095952023988005	
1.7089476635729285E12	2.510869565217391	-6.369565217391304	3.652173913043478	3935.531135531135	128.0	128.0	-0.9596503924906722	29.037033204678682	28.07738281218801	483.0103758585901	566.7691179238699	-1.3587786259541985	3.16030534351145	0.48854961832061067	-0.04047976011994003	0.4452773613193403	0.07796101949025487	
1.7089476635924607E12	2.5217391304347827	-6.445652173913043	3.543478260869565	3960.43956043956	128.0	128.0	-0.9599388790057753	29.068622478082478	28.108683599076702	483.0163619537785	566.7390432046703	-4.748091603053435	7.297709923664121	0.4580152671755725	-0.029985007496251874	0.43928035982008995	0.08545727136431784	
1.7089476636119932E12	2.510869565217391	-6.369565217391304	3.434782608695652	3958.974358974359	128.0	128.0	-0.9465242560534783	29.087734709708062	28.141210453654583	483.0106643451052	566.7076702961529	-5.1603053435114505	7.267175572519084	1.4351145038167938	-0.034482758620689655	0.4332833583208396	0.06896551724137931	
1.7089476636315254E12	2.5217391304347827	-6.326086956521739	3.434782608695652	3956.043956043956	128.0	128.0	-0.9596503924906722	29.10612572504589	28.146475332555216	483.0150637644606	566.7077424177817	1.282442748091603	8.396946564885496	1.3282442748091603	-0.046476761619190406	0.4287856071964018	0.07646176911544228	
1.7089476636510576E12	2.532608695652174	-6.369565217391304	3.4782608695652173	3957.5091575091574	128.0	128.0	-0.9686655960876461	29.150769013258103	28.182103417170456	483.01311648048363	566.7233928112261	-1.984732824427481	7.404580152671755	1.465648854961832	-0.05247376311844078	0.42728635682158916	0.07496251874062969	
1.7089476636705898E12	2.4782608695652173	-6.456521739130435	3.5217391304347827	3958.974358974359	128.0	128.0	-0.9589291762029143	29.166852136475104	28.20792296027219	483.01542437260446	566.7132957831974	-6.3206106870229	6.290076335877862	1.4045801526717556	-0.04047976011994003	0.43478260869565216	0.08545727136431784	
1.708947663690122E12	2.4782608695652173	-6.478260869565217	3.532608695652174	3957.5091575091574	128.0	128.0	-0.956981892225968	29.197720193591145	28.240738301365177	483.0129001155973	566.7127188101672	-7.190839694656488	6.137404580152672	1.3587786259541985	-0.04047976011994003	0.43478260869565216	0.08095952023988005	
