"sep=	"
Shimmer_6D72_TimestampSync_Unix_CAL	Shimmer_6D72_Accel_LN_X_CAL	Shimmer_6D72_Accel_LN_Y_CAL	Shimmer_6D72_Accel_LN_Z_CAL	Shimmer_6D72_Battery_CAL	Shimmer_6D72_ECG_EMG_Status1_CAL	Shimmer_6D72_ECG_EMG_Status2_CAL	Shimmer_6D72_ECG_LA-RA_24BIT_CAL	Shimmer_6D72_ECG_LL-LA_24BIT_CAL	Shimmer_6D72_ECG_LL-RA_24BIT_CAL	Shimmer_6D72_ECG_RESP_24BIT_CAL	Shimmer_6D72_ECG_Vx-RL_24BIT_CAL	Shimmer_6D72_Gyro_X_CAL	Shimmer_6D72_Gyro_Y_CAL	Shimmer_6D72_Gyro_Z_CAL	Shimmer_6D72_Mag_X_CAL	Shimmer_6D72_Mag_Y_CAL	Shimmer_6D72_Mag_Z_CAL	
ms	m/(s^2)	m/(s^2)	m/(s^2)	mV	no_units	no_units	mV	mV	mV	mV	mV	deg/s	deg/s	deg/s	local_flux	local_flux	local_flux	
1.7089520402263635E12	2.652173913043478	-6.532608695652174	2.3369565217391304	3912.0879120879117	128.0	128.0	-0.10306180752060504	6.2849672180375125	6.181905410516907	477.83586535881346	599.1409109998835	-4.519083969465648	6.870229007633587	0.7786259541984732	-0.05397301349325337	0.4287856071964018	0.12293853073463268	
1.708952040245895E12	2.6739130434782608	-6.5	2.3152173913043477	3912.0879120879117	128.0	128.0	0.27846160870332826	6.368772550674981	6.64723415937831	477.83269200714733	598.7536178533576	-3.2671755725190836	6.442748091603053	0.9465648854961831	-0.05397301349325337	0.41829085457271364	0.12293853073463268	
1.7089520402654268E12	2.6956521739130435	-6.489130434782608	2.282608695652174	3909.1575091575087	128.0	128.0	-0.12412132312313595	5.978738782255505	5.854617459132369	477.83831749419187	598.6977957126851	-2.564885496183206	6.641221374045801	0.6259541984732824	-0.05997001499250375	0.42728635682158916	0.12143928035982009	
1.7089520402849583E12	2.717391304347826	-6.445652173913043	2.260869565217391	3912.0879120879117	128.0	128.0	-0.25069478162464875	6.019126894369948	5.768432112745299	477.8359374804423	598.9582990358233	-2.3206106870229006	6.793893129770992	0.8244274809160305	-0.0704647676161919	0.424287856071964	0.12443778110944527	
1.70895204030449E12	2.630434782608696	-6.423913043478261	2.3043478260869565	3885.7142857142853	128.0	128.0	-0.20511391223834902	6.063048966294404	5.857935054056055	477.83543262904084	599.0201793933129	-1.7251908396946565	6.748091603053435	0.5190839694656488	-0.05547226386806597	0.4197901049475262	0.13193403298350825	
1.7089520403240217E12	2.684782608695652	-6.478260869565217	2.3369565217391304	3912.0879120879117	128.0	128.0	-0.18917503227889923	6.065356858415229	5.87618182613633	477.83528838578326	599.0488838015657	-4.748091603053435	6.366412213740458	0.5190839694656488	-0.06596701649175413	0.42278860569715143	0.13343328335832083	
1.7089520403435532E12	2.6956521739130435	-6.510869565217391	2.3043478260869565	3910.62271062271	128.0	128.0	-0.1840543966358181	6.069828399399329	5.885774002763511	477.8373799130178	599.0387146519083	-5.374045801526718	6.290076335877862	0.7633587786259541	-0.06146926536731634	0.4287856071964018	0.12593703148425786	
1.708952040363085E12	2.717391304347826	-6.456521739130435	2.282608695652174	3885.7142857142853	128.0	128.0	-0.17604889584170533	6.067808993793607	5.891760097951901	477.83716354813146	599.0468643959599	-1.7099236641221374	6.763358778625954	0.9923664122137404	-0.06746626686656672	0.416791604197901	0.13493253373313344	
1.7089520403826167E12	2.6739130434782608	-6.413043478260869	2.25	3907.6923076923076	128.0	128.0	-0.17172159811515786	6.070621737315863	5.8989001392007046	477.8356489939272	599.0840070347795	-2.183206106870229	6.946564885496183	1.129770992366412	-0.05997001499250375	0.43178410794602695	0.12443778110944527	
1.7089520404021482E12	2.6630434782608696	-6.445652173913043	2.260869565217391	3909.1575091575087	128.0	128.0	-0.14482023058178792	6.069179304740346	5.924359074158558	477.83449504786677	599.1083841453056	-5.251908396946565	6.198473282442748	0.8396946564885496	-0.06296851574212893	0.424287856071964	0.12143928035982009	
1.70895204042168E12	2.7065217391304346	-6.521739130434782	2.3043478260869565	3910.62271062271	128.0	128.0	-0.12736679641804655	6.073362359209343	5.945995562791296	477.83514414252573	599.1170387407587	-6.641221374045801	6.137404580152672	0.6412213740458015	-0.04947526236881559	0.41079460269865065	0.11244377811094453	
1.7089520404412117E12	2.717391304347826	-6.565217391304348	2.282608695652174	3910.62271062271	128.0	128.0	-0.11121155157226939	6.083964238639384	5.972752687067114	477.83326898017754	599.1269915255299	-5.038167938931298	6.717557251908397	0.7175572519083969	-0.06896551724137931	0.42278860569715143	0.11544227886056971	
1.7089520404607432E12	2.7065217391304346	-6.521739130434782	2.293478260869565	3885.7142857142853	128.0	128.0	-0.07688165627499298	6.122332945148104	6.045451288873111	477.8334853450639	599.126630917386	-2.351145038167939	6.946564885496183	0.5954198473282443	-0.06146926536731634	0.43628185907046474	0.12593703148425786	
1.708952040480275E12	2.7065217391304346	-6.489130434782608	2.282608695652174	3910.62271062271	128.0	128.0	-0.0680828175643465	6.133223311093249	6.065140493528903	477.83334110180635	599.1222314980306	-2.7938931297709924	6.717557251908397	0.8244274809160305	-0.04497751124437781	0.43178410794602695	0.11394302848575712	
1.7089520404998064E12	2.6630434782608696	-6.467391304347826	2.1956521739130435	3909.1575091575087	128.0	128.0	-0.08423806241012365	6.146277325901666	6.062039263491543	477.83326898017754	599.0873246297032	-3.0381679389312977	6.519083969465648	0.6717557251908397	-0.05547226386806597	0.42728635682158916	0.12893553223388304	
1.7089520405193381E12	2.6739130434782608	-6.434782608695652	2.3043478260869565	3887.179487179487	128.0	128.0	-0.1213807012296559	6.130915418972424	6.009534717742768	477.8359374804423	599.0565286942159	-1.9236641221374045	6.671755725190839	0.7175572519083969	-0.06596701649175413	0.42278860569715143	0.12293853073463268	
1.7089520405388699E12	2.6956521739130435	-6.456521739130435	2.293478260869565	3907.6923076923076	128.0	128.0	-0.15773000213265445	6.098460686023318	5.9407306838906635	477.8362259669574	599.041383152173	-3.7862595419847325	7.145038167938931	0.549618320610687	-0.04497751124437781	0.4197901049475262	0.12443778110944527	
1.7089520405584014E12	2.684782608695652	-6.5	2.2717391304347827	3912.0879120879117	128.0	128.0	-0.17345251720577684	6.085478792843675	5.912026275637898	477.83600960207104	599.0210448528582	-4.916030534351145	6.916030534351145	0.549618320610687	-0.06296851574212893	0.424287856071964	0.13193403298350825	
1.708952040577933E12	2.7065217391304346	-6.489130434782608	2.2717391304347827	3910.62271062271	128.0	128.0	-0.1785010312200822	6.0812957383746795	5.902794707154597	477.8356489939272	599.0092890273678	-3.49618320610687	6.763358778625954	0.5954198473282443	-0.047976011994003	0.41379310344827586	0.1424287856071964	
1.7089520405974648E12	2.684782608695652	-6.478260869565217	2.282608695652174	3912.0879120879117	128.0	128.0	-0.19306960023279193	6.077112683905684	5.884043083672892	477.8340623180941	599.0230642584639	-2.763358778625954	7.129770992366412	0.9007633587786259	-0.05997001499250375	0.416791604197901	0.12443778110944527	
1.7089520406169963E12	2.684782608695652	-6.434782608695652	2.1847826086956523	3904.7619047619046	128.0	128.0	-0.18333318034806018	6.086127887502657	5.902794707154597	477.8357932371847	599.0095775138828	-2.6259541984732824	7.083969465648854	0.6870229007633587	-0.05997001499250375	0.4197901049475262	0.13493253373313344	
1.708952040636528E12	2.641304347826087	-6.445652173913043	2.3369565217391304	3910.62271062271	128.0	128.0	-0.1715052332288305	6.076752075761805	5.905246842532974	477.835072020897	599.0144817846397	-2.6564885496183206	7.2824427480916025	0.5190839694656488	-0.06746626686656672	0.424287856071964	0.12443778110944527	
1.7089520406560596E12	2.6956521739130435	-6.467391304347826	2.25	3910.62271062271	128.0	128.0	-0.17662586887191165	6.096080672273716	5.919454803401805	477.8356489939272	599.0055387026714	-4.549618320610687	6.824427480916031	0.4580152671755725	-0.06146926536731634	0.41829085457271364	0.1199400299850075	
1.7089520406755913E12	2.7065217391304346	-6.510869565217391	2.260869565217391	3887.179487179487	128.0	128.0	-0.1707840169410726	6.092546712463703	5.92176269552263	477.8360817236998	599.0062599189591	-4.229007633587786	6.5038167938931295	0.7938931297709924	-0.05997001499250375	0.43178410794602695	0.12893553223388304	
1.708952040695123E12	2.684782608695652	-6.456521739130435	2.282608695652174	3912.0879120879117	128.0	128.0	-0.17576040932660214	6.0970903750765775	5.921329965749975	477.8365144534725	598.9938549988098	-2.717557251908397	6.824427480916031	0.732824427480916	-0.05247376311844078	0.4197901049475262	0.14692653673163417	
1.7089520407146545E12	2.684782608695652	-6.5	2.2717391304347827	3912.0879120879117	128.0	128.0	-0.16220154311675347	6.062039263491544	5.89983772037479	477.83615384532857	598.9919798364616	-2.763358778625954	6.702290076335878	0.7786259541984732	-0.06896551724137931	0.41529235382308843	0.12593703148425786	
1.7089520407341863E12	2.6956521739130435	-6.467391304347826	2.293478260869565	3909.1575091575087	128.0	128.0	-0.17612101747048112	6.0840363602681595	5.907915342797678	477.83442292623795	598.9972447153622	-2.045801526717557	6.625954198473282	1.0534351145038168	-0.05547226386806597	0.4197901049475262	0.12143928035982009	
1.708952040753718E12	2.6739130434782608	-6.467391304347826	2.3260869565217392	3910.62271062271	128.0	128.0	-0.17590465258415375	6.093340050380236	5.9174353977960825	477.83557687229836	598.9848397952128	-3.129770992366412	6.3206106870229	0.8854961832061068	-0.05697151424287856	0.44377811094452774	0.13793103448275862	
1.7089520407732495E12	2.6739130434782608	-6.478260869565217	2.2391304347826084	3903.296703296703	128.0	128.0	-0.19011261345298452	6.108846200567031	5.918733587114047	477.83665869673	598.9981822965362	-3.312977099236641	6.65648854961832	0.9465648854961831	-0.05247376311844078	0.43478260869565216	0.12443778110944527	
1.7089520407927812E12	2.684782608695652	-6.467391304347826	2.293478260869565	3910.62271062271	128.0	128.0	-0.18261196406030228	6.111009849430305	5.928397885370003	477.8356489939272	598.9997689723693	-2.3206106870229006	6.763358778625954	1.0687022900763359	-0.05697151424287856	0.4287856071964018	0.12593703148425786	
1.708952040812313E12	2.684782608695652	-6.467391304347826	2.2717391304347827	3910.62271062271	128.0	128.0	-0.17590465258415375	6.13697363578959	5.961068983205436	477.83615384532857	598.990248917371	-2.519083969465649	6.641221374045801	0.6717557251908397	-0.06596701649175413	0.4257871064467766	0.1199400299850075	
1.7089520408318445E12	2.684782608695652	-6.478260869565217	2.293478260869565	3885.7142857142853	128.0	128.0	-0.15434028558019228	6.113822592952561	5.959482307372369	477.83471141275305	599.0026538375204	-3.7709923664122136	6.458015267175572	0.6717557251908397	-0.04497751124437781	0.43478260869565216	0.12893553223388304	
1.7089520408513762E12	2.7065217391304346	-6.521739130434782	2.282608695652174	3912.0879120879117	128.0	128.0	-0.10940851085287463	6.145844596129012	6.036436085276137	477.8362259669574	598.9727233615785	-3.4351145038167936	6.473282442748092	0.7480916030534351	-0.05697151424287856	0.4287856071964018	0.12593703148425786	
1.7089520408709077E12	2.684782608695652	-6.5	2.293478260869565	3910.62271062271	128.0	128.0	-0.11928917399515797	6.080069670685491	5.960780496690333	477.83478353438187	598.9733724562374	-3.099236641221374	6.519083969465648	0.8396946564885496	-0.05547226386806597	0.4197901049475262	0.12443778110944527	
1.7089520408904395E12	2.6630434782608696	-6.467391304347826	2.3043478260869565	3910.62271062271	128.0	128.0	-0.13804079747686357	6.0669435342482965	5.928902736771433	477.83543262904084	598.9736609427525	-2.732824427480916	6.351145038167939	0.48854961832061067	-0.05247376311844078	0.4197901049475262	0.13493253373313344	
1.7089520409099712E12	2.684782608695652	-6.456521739130435	2.25	3910.62271062271	128.0	128.0	-0.1691973411080052	6.067520507278504	5.898323166170498	477.8357932371847	598.9694778882836	-2.900763358778626	6.580152671755725	0.42748091603053434	-0.06746626686656672	0.42728635682158916	0.12893553223388304	
1.7089520409295027E12	2.684782608695652	-6.434782608695652	2.2717391304347827	3910.62271062271	128.0	128.0	-0.18102528822723488	6.0613901688325615	5.880364880605327	477.8355047506696	598.9656554419583	-2.748091603053435	6.65648854961832	0.48854961832061067	-0.06146926536731634	0.4257871064467766	0.12293853073463268	
1.7089520409490344E12	2.6956521739130435	-6.489130434782608	2.282608695652174	3909.1575091575087	128.0	128.0	-0.22177400848555667	6.159980435369067	5.93820642688351	477.8368029399876	598.9823155382056	-2.1374045801526718	6.152671755725191	0.4427480916030534	-0.05697151424287856	0.4257871064467766	0.1199400299850075	
1.7089520409685662E12	2.7065217391304346	-6.5	2.3260869565217392	3910.62271062271	128.0	128.0	-0.07875681862316354	6.259436161450882	6.180679342827719	477.83543262904084	599.0379934356205	-2.748091603053435	6.519083969465648	-0.0916030534351145	-0.05997001499250375	0.4197901049475262	0.12893553223388304	
1.7089520409880977E12	2.7065217391304346	-6.510869565217391	2.3260869565217392	3888.6446886446884	128.0	128.0	0.2652633506373585	6.047759180993937	6.313022531631296	477.8372356697602	598.5853580934237	-3.3740458015267176	6.564885496183206	-0.0916030534351145	-0.06746626686656672	0.43178410794602695	0.12443778110944527	
1.7089520410076294E12	2.7065217391304346	-6.521739130434782	2.260869565217391	3884.249084249084	128.0	128.0	-0.20677270970019218	5.912242640524226	5.705469930824034	477.8393993186235	598.653440910988	-1.9389312977099236	6.213740458015267	-0.183206106870229	-0.05697151424287856	0.42278860569715143	0.11244377811094453	
1.708952041027161E12	2.717391304347826	-6.467391304347826	2.25	3912.0879120879117	128.0	128.0	-0.22523584666679464	6.0199202322864815	5.794684385619687	477.83774052116166	598.8713203515197	-0.5190839694656488	6.473282442748092	0.2748091603053435	-0.05547226386806597	0.424287856071964	0.12143928035982009	
1.7089520410466926E12	2.6630434782608696	-6.445652173913043	2.3478260869565215	3910.62271062271	128.0	128.0	-0.1863622887566434	6.045018559100456	5.858656270343813	477.8373799130178	598.9592366169974	0.015267175572519083	6.2748091603053435	-0.07633587786259542	-0.05547226386806597	0.43178410794602695	0.12893553223388304	
1.7089520410662244E12	2.6739130434782608	-6.5	2.3152173913043477	3910.62271062271	128.0	128.0	-0.17662586887191165	6.0576398441362205	5.881013975264309	477.83745203464656	598.9581547925657	-3.1755725190839694	6.229007633587786	0.0916030534351145	-0.06146926536731634	0.41829085457271364	0.13043478260869565	
1.7089520410857559E12	2.6956521739130435	-6.521739130434782	2.369565217391304	3912.0879120879117	128.0	128.0	-0.1653027731541125	6.046244626789646	5.880941853635533	477.83867810233573	598.9689730368821	-3.6946564885496183	6.229007633587786	0.061068702290076333	-0.046476761619190406	0.41829085457271364	0.12293853073463268	
1.7089520411052876E12	2.717391304347826	-6.478260869565217	2.369565217391304	3912.0879120879117	128.0	128.0	-0.1535469476636586	6.034560922927967	5.881013975264309	477.83745203464656	598.9778439972215	-0.3511450381679389	6.900763358778626	0.916030534351145	-0.05997001499250375	0.424287856071964	0.13193403298350825	
1.7089520411248193E12	2.684782608695652	-6.456521739130435	2.3152173913043477	3910.62271062271	128.0	128.0	-0.13356925649276455	6.030161503572644	5.896592247079879	477.8396156835098	598.9996247291118	0.07633587786259542	6.595419847328244	1.2366412213740459	-0.05247376311844078	0.4197901049475262	0.13493253373313344	
1.7089520411443508E12	2.684782608695652	-6.423913043478261	2.3043478260869565	3887.179487179487	128.0	128.0	-0.12808801270580444	6.031676057776935	5.903588045071131	477.8384617374494	599.0076302299059	-1.114503816793893	5.480916030534351	0.7633587786259541	-0.06896551724137931	0.42278860569715143	0.11244377811094453	
1.7089520411638826E12	2.7282608695652173	-6.5	2.4130434782608696	3884.249084249084	128.0	128.0	-0.11640430884412634	6.042422180464528	5.9260178716204015	477.8385338590782	599.0068368919893	-2.030534351145038	5.358778625954198	0.15267175572519084	-0.05997001499250375	0.424287856071964	0.1169415292353823	
1.7089520411834143E12	2.75	-6.532608695652174	2.3478260869565215	3910.62271062271	128.0	128.0	-0.0742852776390645	6.0569907494772375	5.982705471838173	477.8397599267674	599.028833988766	-3.5877862595419847	6.198473282442748	0.13740458015267176	-0.05997001499250375	0.42728635682158916	0.12443778110944527	
1.7089520412029458E12	2.7065217391304346	-6.521739130434782	2.3369565217391304	3909.1575091575087	128.0	128.0	-0.052288180862448325	6.05439437084131	6.0021061899788615	477.84185145400187	599.0366952463025	-2.3053435114503817	6.213740458015267	0.22900763358778625	-0.06146926536731634	0.41829085457271364	0.11244377811094453	
1.7089520412224775E12	2.7391304347826084	-6.445652173913043	2.3152173913043477	3912.0879120879117	128.0	128.0	-0.054235464839394676	6.074011453868325	6.01977598902893	477.84098599445656	599.0332334081213	-0.47328244274809156	6.7328244274809155	0.13740458015267176	-0.046476761619190406	0.42278860569715143	0.1199400299850075	
1.708952041242009E12	2.7065217391304346	-6.413043478260869	2.3260869565217392	3910.62271062271	128.0	128.0	-0.06765008779169177	6.06175077697644	5.994100689184748	477.8406253863127	599.0019326212326	-1.3893129770992365	6.427480916030534	0.21374045801526717	-0.05397301349325337	0.4332833583208396	0.1199400299850075	
1.7089520412615408E12	2.7282608695652173	-6.434782608695652	2.391304347826087	3910.62271062271	128.0	128.0	-0.10919214596654725	6.031748179405711	5.922556033439164	477.8420678188882	598.9613281442319	-2.6564885496183206	6.152671755725191	0.4580152671755725	-0.05697151424287856	0.42278860569715143	0.11544227886056971	
1.7089520412810725E12	2.75	-6.478260869565217	2.369565217391304	3910.62271062271	128.0	128.0	-0.1446759873242363	6.028286341224473	5.883610353900237	477.84098599445656	598.9502214134004	-2.9618320610687023	6.595419847328244	0.21374045801526717	-0.06146926536731634	0.4332833583208396	0.11244377811094453	
1.708952041300604E12	2.7391304347826084	-6.489130434782608	2.3478260869565215	3885.7142857142853	128.0	128.0	-0.1535469476636586	5.992730378238008	5.83918343057435	477.84192357563063	598.940052263743	-2.7022900763358777	6.900763358778626	0.4580152671755725	-0.06896551724137931	0.4332833583208396	0.12293853073463268	
1.7089520413201357E12	2.7717391304347827	-6.478260869565217	2.3369565217391304	3912.0879120879117	128.0	128.0	-0.15996577262470396	5.981623647406537	5.821657874781833	477.84408722449393	598.9485626159385	-2.687022900763359	6.671755725190839	0.13740458015267176	-0.05997001499250375	0.41379310344827586	0.12143928035982009	
1.7089520413396675E12	2.6956521739130435	-6.467391304347826	2.402173913043478	3912.0879120879117	128.0	128.0	-0.1580906102765334	5.986095188390636	5.828004578114102	477.84286115680476	598.9436583451818	-3.099236641221374	7.129770992366412	0.5190839694656488	-0.046476761619190406	0.4287856071964018	0.13043478260869565	
1.708952041359199E12	2.684782608695652	-6.456521739130435	2.2717391304347827	3910.62271062271	128.0	128.0	-0.16263427288940824	5.9853018504741025	5.822667577584694	477.84408722449393	598.9533226434378	-2.9770992366412212	7.312977099236641	0.6259541984732824	-0.05547226386806597	0.42728635682158916	0.12143928035982009	
1.7089520413787307E12	2.684782608695652	-6.4021739130434785	2.3260869565217392	3885.7142857142853	128.0	128.0	-0.16703369224473147	5.989484904943098	5.8224512126983665	477.8438708596076	598.946182602189	-0.32061068702290074	7.114503816793893	0.8244274809160305	-0.046476761619190406	0.4287856071964018	0.11544227886056971	
1.7089520413982622E12	2.7282608695652173	-6.423913043478261	2.391304347826087	3907.6923076923076	128.0	128.0	-0.1567202993297934	5.984292147671241	5.827571848341448	477.846322994986	598.9386098311675	-1.8931297709923662	6.900763358778626	0.8549618320610687	-0.06596701649175413	0.42278860569715143	0.13043478260869565	
1.708952041417794E12	2.75	-6.510869565217391	2.358695652173913	3910.62271062271	128.0	128.0	-0.16003789425347975	5.991143702404941	5.831105808151461	477.84538541381187	598.9354364795014	-3.9083969465648853	6.1679389312977095	0.5343511450381679	-0.047976011994003	0.4422788605697151	0.12443778110944527	
1.7089520414373257E12	2.75	-6.5	2.380434782608696	3912.0879120879117	128.0	128.0	-0.147200244331389	5.967199321651378	5.81999907731999	477.8482702789629	598.9513753594608	-3.282442748091603	7.007633587786259	0.42748091603053434	-0.038980509745127435	0.4287856071964018	0.11544227886056971	
1.7089520414568572E12	2.717391304347826	-6.478260869565217	2.369565217391304	3888.6446886446884	128.0	128.0	-0.16047062402613452	5.9763587685059045	5.81588814447977	477.84762118430393	598.9361576957891	-1.8473282442748091	7.404580152671755	0.6412213740458015	-0.05697151424287856	0.42278860569715143	0.12293853073463268	
1.708952041476389E12	2.717391304347826	-6.467391304347826	2.3478260869565215	3912.0879120879117	128.0	128.0	-0.16732217875983463	5.989196418427995	5.82187423966816	477.84848664384924	598.9321188845777	-1.5267175572519083	7.297709923664121	0.8854961832061068	-0.04497751124437781	0.4197901049475262	0.12893553223388304	
1.7089520414959207E12	2.7391304347826084	-6.456521739130435	2.380434782608696	3912.0879120879117	128.0	128.0	-0.1580184886477576	5.958544726198284	5.8005262375505255	477.8481260357054	598.9283685598813	-2.045801526717557	6.793893129770992	0.7175572519083969	-0.06596701649175413	0.42278860569715143	0.11544227886056971	
1.7089520415154521E12	2.7282608695652173	-6.456521739130435	2.358695652173913	3910.62271062271	128.0	128.0	-0.16025425913980712	5.956958050365216	5.796703791225409	477.84906361687945	598.9352922362438	-2.396946564885496	6.748091603053435	0.7175572519083969	-0.047976011994003	0.43178410794602695	0.13493253373313344	
1.708952041534984E12	2.717391304347826	-6.434782608695652	2.380434782608696	3912.0879120879117	128.0	128.0	-0.15556635326938073	5.940802805519439	5.785236452250058	477.8510109008564	598.9301716006007	-1.6335877862595418	6.916030534351145	0.9465648854961831	-0.06896551724137931	0.4257871064467766	0.11544227886056971	
1.7089520415545156E12	2.7065217391304346	-6.478260869565217	2.4347826086956523	3912.0879120879117	128.0	128.0	-0.14590205501342476	5.954938644759493	5.809036589746069	477.8491357385082	598.9320467629489	-1.984732824427481	6.778625954198473	0.8702290076335878	-0.04497751124437781	0.43178410794602695	0.13493253373313344	
1.708952041574047E12	2.7065217391304346	-6.5	2.402173913043478	3909.1575091575087	128.0	128.0	-0.13191045903092136	5.966261740477293	5.834351281446372	477.85209272528806	598.9409898449171	-3.0381679389312977	6.977099236641221	0.6870229007633587	-0.05697151424287856	0.4257871064467766	0.12293853073463268	
1.7089520415935789E12	2.717391304347826	-6.456521739130435	2.391304347826087	3909.1575091575087	128.0	128.0	-0.08791626547768897	5.977368471308765	5.889452205831076	477.85151575225785	598.9249067217	-3.3435114503816794	6.99236641221374	0.8396946564885496	-0.047976011994003	0.424287856071964	0.12143928035982009	
1.7089520416131104E12	2.7065217391304346	-6.445652173913043	2.369565217391304	3884.249084249084	128.0	128.0	-0.10450424009612086	5.937268845709426	5.8327646056133045	477.8535351578636	598.916901220906	-1.9083969465648853	7.129770992366412	0.6870229007633587	-0.05547226386806597	0.4197901049475262	0.12443778110944527	
1.708952041632642E12	2.7282608695652173	-6.413043478260869	2.380434782608696	3912.0879120879117	128.0	128.0	-0.1259964854713065	5.926306358135505	5.800309872664198	477.85238121180316	598.9180551669664	-1.8473282442748091	6.900763358778626	0.8702290076335878	-0.05397301349325337	0.41829085457271364	0.1409295352323838	
1.7089520416521738E12	2.7065217391304346	-6.423913043478261	2.369565217391304	3910.62271062271	128.0	128.0	-0.1440268926652542	5.9129638568119836	5.76893696414673	477.85295818483337	598.9165406127621	-2.8396946564885495	6.65648854961832	0.6870229007633587	-0.05697151424287856	0.4332833583208396	0.11544227886056971	
1.7089520416717053E12	2.6956521739130435	-6.434782608695652	2.3478260869565215	3910.62271062271	128.0	128.0	-0.15383543417876175	5.911882032380347	5.758046598201585	477.8525254550607	598.902116287007	-2.916030534351145	6.671755725190839	0.6564885496183206	-0.06146926536731634	0.4257871064467766	0.10794602698650674	
1.708952041691237E12	2.7282608695652173	-6.423913043478261	2.402173913043478	3910.62271062271	128.0	128.0	-0.17655374724313586	5.938062183625959	5.761508436382823	477.8532466713485	598.9137999908686	-2.3664122137404577	6.916030534351145	0.7633587786259541	-0.05547226386806597	0.42728635682158916	0.1169415292353823	
1.7089520417107688E12	2.760869565217391	-6.456521739130435	2.402173913043478	3910.62271062271	128.0	128.0	-0.012404920149436015	6.092474590834927	6.080069670685491	477.8513715090003	598.9920519580903	-3.6030534351145036	7.007633587786259	0.6564885496183206	-0.05397301349325337	0.43628185907046474	0.12293853073463268	
1.7089520417303003E12	2.717391304347826	-6.489130434782608	2.380434782608696	3910.62271062271	128.0	128.0	0.2747834056357629	6.24818518736186	6.522968592997622	477.85180423877296	598.609374595806	-4.366412213740458	6.671755725190839	0.5954198473282443	-0.05697151424287856	0.41829085457271364	0.1199400299850075	
1.708952041749832E12	2.7391304347826084	-6.489130434782608	2.3478260869565215	3912.0879120879117	128.0	128.0	-0.19912781704995836	5.75898417937567	5.559856362325712	477.85404000926496	598.6698125207201	-3.6488549618320607	6.946564885496183	0.9770992366412213	-0.05397301349325337	0.4257871064467766	0.12293853073463268	
1.7089520417693635E12	2.75	-6.456521739130435	2.3369565217391304	3887.179487179487	128.0	128.0	-0.184775612923576	5.866806014395477	5.682030401471901	477.8549775904391	598.843553524441	-3.2519083969465647	7.114503816793893	0.8549618320610687	-0.047976011994003	0.424287856071964	0.13193403298350825	
1.7089520417888953E12	2.6630434782608696	-6.4021739130434785	2.3369565217391304	3884.249084249084	128.0	128.0	-0.14914752830833536	5.907626856282575	5.75847932797424	477.8525254550607	598.914665450414	-2.8396946564885495	6.65648854961832	0.6106870229007634	-0.05697151424287856	0.41529235382308843	0.12293853073463268	
1.708952041808427E12	2.717391304347826	-6.434782608695652	2.402173913043478	3912.0879120879117	128.0	128.0	-0.14265658171851417	5.90668927510849	5.764032693389976	477.8538236443787	598.9377443716222	-3.2671755725190836	6.824427480916031	0.366412213740458	-0.06896551724137931	0.44377811094452774	0.12593703148425786	
1.7089520418279585E12	2.7065217391304346	-6.445652173913043	2.369565217391304	3910.62271062271	128.0	128.0	-0.12974681016764764	5.91902207362915	5.789275263461502	477.8524533334319	598.9334891955244	-5.541984732824427	6.687022900763359	0.4427480916030534	-0.047976011994003	0.43178410794602695	0.1394302848575712	
1.7089520418474902E12	2.760869565217391	-6.423913043478261	2.380434782608696	3912.0879120879117	128.0	128.0	-0.12325586357782646	5.908420194199109	5.785164330621282	477.8521648469168	598.9478413996508	-3.877862595419847	6.961832061068702	0.916030534351145	-0.06296851574212893	0.424287856071964	0.12443778110944527	
1.708952041867022E12	2.7391304347826084	-6.413043478260869	2.3478260869565215	3912.0879120879117	128.0	128.0	-0.09743632047609335	5.892625557497211	5.795189237021117	477.8515878738866	598.9469038184767	-3.3435114503816794	7.358778625954198	1.2519083969465647	-0.05997001499250375	0.43478260869565216	0.11094452773613193	
1.7089520418865535E12	2.7065217391304346	-6.413043478260869	2.3152173913043477	3912.0879120879117	128.0	128.0	-0.08705080593237949	5.90582381556318	5.818773009630801	477.85238121180316	598.978637335138	-4.625954198473282	6.259541984732824	1.099236641221374	-0.06296851574212893	0.42728635682158916	0.12443778110944527	
1.7089520419060852E12	2.717391304347826	-6.489130434782608	2.4130434782608696	3910.62271062271	128.0	128.0	-0.06404400635290222	5.907266248138696	5.843222241785794	477.8501454413111	598.979935524456	-5.938931297709924	6.33587786259542	0.22900763358778625	-0.047976011994003	0.43178410794602695	0.12443778110944527	
1.708952041925617E12	2.717391304347826	-6.521739130434782	2.3478260869565215	3888.6446886446884	128.0	128.0	-0.044066315182008174	5.9235657362420255	5.879499421060017	477.8489914952507	598.9922683229767	-6.687022900763359	6.900763358778626	0.5343511450381679	-0.041979010494752625	0.42278860569715143	0.13793103448275862	
1.7089520419451484E12	2.7282608695652173	-6.5	2.3369565217391304	3912.0879120879117	128.0	128.0	-0.009015203596973848	5.929551831430415	5.9205366278334415	477.848558765478	598.9968119855895	-5.022900763358779	6.748091603053435	0.6717557251908397	-0.05397301349325337	0.4332833583208396	0.12593703148425786	
1.7089520419646802E12	2.7282608695652173	-6.434782608695652	2.3260869565217392	3912.0879120879117	128.0	128.0	0.005625487044511682	5.935105196846152	5.9407306838906635	477.8467557247586	598.9896719443408	-2.8091603053435112	6.534351145038167	1.0076335877862594	-0.05247376311844078	0.43178410794602695	0.1394302848575712	
1.7089520419842117E12	2.7282608695652173	-6.423913043478261	2.3260869565217392	3909.1575091575087	128.0	128.0	-0.02019405605722142	5.956381077335009	5.936187021277788	477.8484145222205	598.960318441429	-3.9541984732824424	6.519083969465648	1.083969465648855	-0.05247376311844078	0.43928035982008995	0.1169415292353823	
1.7089520420037434E12	2.7391304347826084	-6.467391304347826	2.358695652173913	3912.0879120879117	128.0	128.0	-0.04586935590140294	5.929696074687968	5.8838267187865645	477.84726057616007	598.9404128718869	-4.442748091603053	6.122137404580153	0.9465648854961831	-0.05397301349325337	0.4287856071964018	0.1199400299850075	
1.7089520420232751E12	2.760869565217391	-6.478260869565217	2.3260869565217392	3909.1575091575087	128.0	128.0	-0.08979142782585953	5.909141410486867	5.819349982661008	477.8482702789629	598.9249788433289	-4.366412213740458	6.549618320610687	1.0687022900763359	-0.06296851574212893	0.424287856071964	0.13493253373313344	
1.7089520420428066E12	2.760869565217391	-6.510869565217391	2.3369565217391304	3909.1575091575087	128.0	128.0	-0.08842111687911951	5.879355177802465	5.7909340609233455	477.8471163329025	598.9080302605665	-4.2748091603053435	6.6106870229007635	1.2519083969465647	-0.04947526236881559	0.41079460269865065	0.11244377811094453	
1.7089520420623384E12	2.8152173913043477	-6.489130434782608	2.391304347826087	3912.0879120879117	128.0	128.0	-0.10688425384572195	5.881374583408188	5.774490329562465	477.8476933059327	598.9102660310585	-4.091603053435114	6.061068702290076	0.7480916030534351	-0.0704647676161919	0.4197901049475262	0.12893553223388304	
1.70895204208187E12	2.717391304347826	-6.510869565217391	2.3369565217391304	3887.179487179487	128.0	128.0	-0.09433509043873435	5.881951556438394	5.787616465999659	477.8465393598723	598.9094726931421	-4.595419847328244	6.458015267175572	1.114503816793893	-0.06746626686656672	0.43178410794602695	0.12143928035982009	
1.7089520421014016E12	2.7282608695652173	-6.467391304347826	2.25	3912.0879120879117	128.0	128.0	-0.09202719831790905	5.8701236093191635	5.778096411001255	477.8458902652133	598.9057944900745	-3.068702290076336	6.946564885496183	1.2061068702290076	-0.05397301349325337	0.4287856071964018	0.1199400299850075	
1.7089520421209333E12	2.7282608695652173	-6.413043478260869	2.391304347826087	3912.0879120879117	128.0	128.0	-0.09346963089342486	5.879138812916137	5.785669182022713	477.84524117055435	598.904352057499	-1.8625954198473282	7.099236641221374	1.3740458015267174	-0.06296851574212893	0.43478260869565216	0.12143928035982009	
1.7089520421404648E12	2.7391304347826084	-6.510869565217391	2.3152173913043477	3909.1575091575087	128.0	128.0	-0.0853920084705363	5.896303760564775	5.810911752094239	477.8460345084709	598.8898556101151	-5.435114503816794	6.305343511450381	1.083969465648855	-0.05547226386806597	0.424287856071964	0.13193403298350825	
1.7089520421599966E12	2.7282608695652173	-6.478260869565217	2.2717391304347827	3912.0879120879117	128.0	128.0	-0.0806319809713341	5.8931304088986405	5.812498427927307	477.845673900327	598.8984380839394	-4.793893129770992	6.366412213740458	1.2519083969465647	-0.047976011994003	0.41379310344827586	0.12893553223388304	
1.7089520421795283E12	2.7282608695652173	-6.456521739130435	2.3478260869565215	3909.1575091575087	128.0	128.0	-0.07579983184335612	5.890173422118833	5.814373590275477	477.8443035893803	598.8859610421612	-2.6259541984732824	6.885496183206107	0.9312977099236641	-0.05247376311844078	0.424287856071964	0.12143928035982009	
1.7089520421990598E12	2.7282608695652173	-6.467391304347826	2.3152173913043477	3910.62271062271	128.0	128.0	-0.08813263036401635	5.878994569658586	5.79086193929457	477.8460345084709	598.8856004340173	-3.847328244274809	6.854961832061068	0.9312977099236641	-0.05997001499250375	0.424287856071964	0.12143928035982009	
1.7089520422185916E12	2.7065217391304346	-6.5	2.3260869565217392	3910.62271062271	128.0	128.0	-0.08265138657705624	5.885629759505958	5.802978372928902	477.84509692729677	598.8822828390936	-4.885496183206107	7.145038167938931	0.7786259541984732	-0.05547226386806597	0.4197901049475262	0.12443778110944527	
1.7089520422381233E12	2.7065217391304346	-6.478260869565217	2.3043478260869565	3885.7142857142853	128.0	128.0	-0.08106471074398884	5.882384286211048	5.801319575467059	477.8445920758954	598.869589432429	-3.847328244274809	6.99236641221374	1.2519083969465647	-0.05397301349325337	0.41529235382308843	0.1199400299850075	
1.7089520422576548E12	2.684782608695652	-6.478260869565217	2.2717391304347827	3912.0879120879117	128.0	128.0	-0.08596898150074261	5.8749557584471415	5.788986776946399	477.84538541381187	598.8830761770101	-2.6259541984732824	7.083969465648854	1.297709923664122	-0.05397301349325337	0.4257871064467766	0.11244377811094453	
1.7089520422771865E12	2.7065217391304346	-6.467391304347826	2.3369565217391304	3912.0879120879117	128.0	128.0	-0.07868469699438775	5.908492315827885	5.829807618833497	477.84639511661476	598.8613675667486	-3.099236641221374	6.625954198473282	1.1755725190839694	-0.05997001499250375	0.43178410794602695	0.11394302848575712	
1.7089520422967183E12	2.7282608695652173	-6.467391304347826	2.3260869565217392	3910.62271062271	128.0	128.0	-0.04897058593876195	5.904958356017871	5.855987770079109	477.8432938865774	598.8811288930332	-4.0	6.641221374045801	0.9770992366412213	-0.0704647676161919	0.4197901049475262	0.11094452773613193	
1.7089520423162498E12	2.7391304347826084	-6.478260869565217	2.3043478260869565	3912.0879120879117	128.0	128.0	-0.011467338975350735	5.9277487907110205	5.91628145173567	477.8430054000623	598.857040269022	-4.1679389312977095	7.251908396946565	1.3587786259541985	-0.0704647676161919	0.424287856071964	0.1169415292353823	
1.7089520423357815E12	2.7065217391304346	-6.478260869565217	2.3043478260869565	3887.179487179487	128.0	128.0	-0.043994193553232384	5.871854528409783	5.827860334856551	477.8454575354407	598.8560305662191	-3.679389312977099	7.297709923664121	1.0076335877862594	-0.05697151424287856	0.4257871064467766	0.13343328335832083	
1.708952042355313E12	2.7282608695652173	-6.489130434782608	2.3043478260869565	3910.62271062271	128.0	128.0	-0.05221605923367253	5.886783705566372	5.834567646332699	477.8451690489256	598.8563911743631	-3.3587786259541983	7.038167938931298	0.8702290076335878	-0.06596701649175413	0.41529235382308843	0.12293853073463268	
1.7089520423748447E12	2.684782608695652	-6.434782608695652	2.2717391304347827	3910.62271062271	128.0	128.0	-0.07241011529089396	5.849641066746839	5.7772309514559455	477.84466419752414	598.84773657891	-3.5114503816793894	6.99236641221374	1.114503816793893	-0.06596701649175413	0.41529235382308843	0.12293853073463268	
1.7089520423943765E12	2.717391304347826	-6.434782608695652	2.293478260869565	3888.6446886446884	128.0	128.0	-0.07255435854844554	5.843871336444776	5.771316977896331	477.8435823730925	598.8480971870539	-3.114503816793893	6.717557251908397	0.7633587786259541	-0.06746626686656672	0.41379310344827586	0.1169415292353823	
1.708952042413908E12	2.6956521739130435	-6.456521739130435	2.3260869565217392	3912.0879120879117	128.0	128.0	-0.09758056373364493	5.876470312651434	5.778889748917789	477.84394298123635	598.866704567278	-4.1679389312977095	7.190839694656488	0.8549618320610687	-0.06746626686656672	0.424287856071964	0.1169415292353823	
1.7089520424334397E12	2.7065217391304346	-6.456521739130435	2.3260869565217392	3910.62271062271	128.0	128.0	0.06224096563350745	6.0611016823174575	6.123342647950965	477.8443035893803	598.9273588570785	-4.8396946564885495	6.961832061068702	0.8244274809160305	-0.03298350824587706	0.424287856071964	0.10644677661169415	
1.7089520424529714E12	2.6956521739130435	-6.467391304347826	2.293478260869565	3909.1575091575087	128.0	128.0	0.362988157628555	6.22503414452483	6.5880223021533855	477.84278903517594	598.524126830593	-3.8931297709923665	7.114503816793893	1.2366412213740459	-0.05547226386806597	0.416791604197901	0.12893553223388304	
1.708952042472503E12	2.7065217391304346	-6.489130434782608	2.3260869565217392	3884.249084249084	128.0	128.0	-0.11222125437513046	5.715422715595093	5.603201461219962	477.8456017786982	598.6137740151613	-2.9770992366412212	6.931297709923664	1.0687022900763359	-0.04497751124437781	0.41379310344827586	0.12893553223388304	
1.7089520424920347E12	2.75	-6.434782608695652	2.25	3909.1575091575087	128.0	128.0	-0.11597157907147158	5.814157225389151	5.698185646317679	477.84451995426656	598.7991266011151	-3.7404580152671754	6.931297709923664	1.3435114503816794	-0.04947526236881559	0.41829085457271364	0.13793103448275862	
1.7089520425115662E12	2.6630434782608696	-6.445652173913043	2.3260869565217392	3909.1575091575087	128.0	128.0	-0.08878172502299846	5.867022379281805	5.7782406542588065	477.8443035893803	598.8786767576548	-3.450381679389313	6.2748091603053435	0.9312977099236641	-0.05547226386806597	0.4197901049475262	0.12893553223388304	
1.708952042531098E12	2.6956521739130435	-6.489130434782608	2.3152173913043477	3910.62271062271	128.0	128.0	-0.07745862930519931	5.87207089329611	5.794612263990911	477.8444478326378	598.8771622034506	-3.618320610687023	7.038167938931298	0.6412213740458015	-0.04497751124437781	0.41379310344827586	0.12443778110944527	
1.7089520425506296E12	2.7065217391304346	-6.489130434782608	2.3260869565217392	3884.249084249084	128.0	128.0	-0.07190526388946342	5.874162420530608	5.8022571566411445	477.84372661635007	598.8675700268233	-4.1679389312977095	6.65648854961832	0.8854961832061068	-0.06146926536731634	0.42278860569715143	0.13343328335832083	
1.7089520425701611E12	2.717391304347826	-6.445652173913043	2.293478260869565	3912.0879120879117	128.0	128.0	-0.05885124908104528	5.882744894354928	5.823893645273882	477.8420678188882	598.8961301918185	-3.49618320610687	6.824427480916031	1.1450381679389312	-0.04947526236881559	0.41079460269865065	0.12593703148425786	
1.7089520425896929E12	2.6630434782608696	-6.445652173913043	2.260869565217391	3912.0879120879117	128.0	128.0	-0.06447673612555696	5.9009916664352025	5.8365149303096455	477.84257267028966	598.8783882711397	-2.717557251908397	7.404580152671755	1.2519083969465647	-0.04947526236881559	0.42278860569715143	0.12293853073463268	
1.7089520426092246E12	2.6956521739130435	-6.456521739130435	2.25	3909.1575091575087	128.0	128.0	-0.04168630143240708	5.907338369767472	5.865652068335065	477.8435823730925	598.9016114356054	-2.198473282442748	6.549618320610687	1.4961832061068703	-0.05997001499250375	0.42728635682158916	0.12893553223388304	
1.708952042628756E12	2.7282608695652173	-6.478260869565217	2.380434782608696	3884.249084249084	128.0	128.0	-0.015866758330673972	5.913829316357293	5.897962558026619	477.84170721074435	598.9145933287851	-2.946564885496183	6.351145038167939	0.9312977099236641	-0.06146926536731634	0.4257871064467766	0.12293853073463268	
1.7089520426482878E12	2.7391304347826084	-6.521739130434782	2.3043478260869565	3885.7142857142853	128.0	128.0	0.006346703332269589	5.94318281926904	5.94952952260131	477.84069750794146	598.9482741294235	-6.137404580152672	6.870229007633587	1.0534351145038168	-0.06596701649175413	0.42278860569715143	0.11544227886056971	
1.7089520426678196E12	2.7282608695652173	-6.5	2.293478260869565	3912.0879120879117	128.0	128.0	0.024160745639889913	5.946356170935175	5.970516916575065	477.8413466026004	598.946182602189	-5.83206106870229	7.114503816793893	1.4351145038167938	-0.06896551724137931	0.4257871064467766	0.12593703148425786	
1.708952042687351E12	2.7065217391304346	-6.510869565217391	2.3152173913043477	3910.62271062271	128.0	128.0	0.026901367533369965	5.989989756344529	6.016891123877898	477.83954356188104	598.9409177232883	-3.32824427480916	7.221374045801526	1.1450381679389312	-0.06746626686656672	0.424287856071964	0.12143928035982009	
1.7089520427068828E12	2.684782608695652	-6.445652173913043	2.25	3887.179487179487	128.0	128.0	0.006923676362475916	5.992658256609232	5.999581932971708	477.84026477816883	598.9109872473464	-2.564885496183206	7.206106870229007	1.129770992366412	-0.06896551724137931	0.42278860569715143	0.13043478260869565	
1.7089520427264143E12	2.6956521739130435	-6.456521739130435	2.260869565217391	3912.0879120879117	128.0	128.0	-0.025675299844181522	5.977945444338971	5.95227014449479	477.8407696295702	598.8697336756866	-2.732824427480916	6.961832061068702	1.0381679389312977	-0.06296851574212893	0.4197901049475262	0.12143928035982009	
1.708952042745946E12	2.7065217391304346	-6.478260869565217	2.2717391304347827	3912.0879120879117	128.0	128.0	-0.07111192597292972	5.964242334871571	5.893130408898641	477.84012053491125	598.8491068898567	-3.297709923664122	6.900763358778626	0.8549618320610687	-0.05547226386806597	0.41379310344827586	0.12143928035982009	
1.7089520427654778E12	2.684782608695652	-6.489130434782608	2.2717391304347827	3910.62271062271	128.0	128.0	-0.07262648017722133	5.932941547982877	5.860315067805656	477.84069750794146	598.8520638766365	-3.877862595419847	6.916030534351145	0.9618320610687022	-0.06746626686656672	0.424287856071964	0.12143928035982009	
1.7089520427850093E12	2.760869565217391	-6.478260869565217	2.282608695652174	3912.0879120879117	128.0	128.0	-0.08806050873524056	5.92998456120307	5.84192405246783	477.83831749419187	598.8672094186794	-4.061068702290076	7.435114503816793	1.2061068702290076	-0.034482758620689655	0.4287856071964018	0.13793103448275862	
1.708952042804541E12	2.6956521739130435	-6.510869565217391	2.3152173913043477	3912.0879120879117	128.0	128.0	-0.0869786843036037	5.927820912339796	5.840842228036193	477.84019265654	598.8553814715602	-3.450381679389313	6.717557251908397	0.7938931297709924	-0.06746626686656672	0.4197901049475262	0.12143928035982009	
1.7089520428240728E12	2.7065217391304346	-6.445652173913043	2.1847826086956523	3910.62271062271	128.0	128.0	-0.09108961714382377	5.941668265064748	5.8505786479209245	477.83687506161635	598.8470153626222	-2.8702290076335877	7.786259541984733	0.7786259541984732	-0.05547226386806597	0.42728635682158916	0.12443778110944527	
1.7089520428436042E12	2.6630434782608696	-6.434782608695652	2.3152173913043477	3910.62271062271	128.0	128.0	-0.08402169752379626	5.926162114877953	5.842140417354157	477.8375241562753	598.8398031997447	-1.3893129770992365	6.99236641221374	1.0229007633587786	-0.06596701649175413	0.4077961019490255	0.1199400299850075	
1.708952042863136E12	2.684782608695652	-6.445652173913043	2.3152173913043477	3885.7142857142853	128.0	128.0	-0.08409381915257207	5.9383506701410615	5.85425685098849	477.83745203464656	598.8443468623575	-2.916030534351145	7.0534351145038165	1.3282442748091603	-0.06296851574212893	0.424287856071964	0.13193403298350825	
1.7089520428826675E12	2.684782608695652	-6.5	2.2282608695652173	3912.0879120879117	128.0	128.0	-0.08596898150074261	5.926089993249177	5.840121011748435	477.83687506161635	598.8396589564871	-5.083969465648854	6.580152671755725	1.2366412213740459	-0.04497751124437781	0.41379310344827586	0.12143928035982009	
1.7089520429021992E12	2.7391304347826084	-6.5	2.3260869565217392	3910.62271062271	128.0	128.0	-0.08394957589502047	5.941668265064748	5.857718689169728	477.8381732509343	598.8407407809187	-3.450381679389313	6.793893129770992	0.9770992366412213	-0.07346326836581708	0.4332833583208396	0.13043478260869565	
1.708952042921731E12	2.7391304347826084	-6.478260869565217	2.3260869565217392	3910.62271062271	128.0	128.0	-0.08604110312951842	5.922628155067939	5.836587051938421	477.8381011293055	598.8450680786452	-2.2748091603053435	6.99236641221374	1.0534351145038168	-0.05247376311844078	0.4197901049475262	0.13193403298350825	
1.7089520429412625E12	2.7065217391304346	-6.467391304347826	2.2717391304347827	3910.62271062271	128.0	128.0	-0.08178592703174675	5.9219069387801815	5.840121011748435	477.83831749419187	598.8338892261851	-3.450381679389313	7.190839694656488	0.732824427480916	-0.06896551724137931	0.42278860569715143	0.11544227886056971	
1.7089520429607942E12	2.684782608695652	-6.456521739130435	2.282608695652174	3909.1575091575087	128.0	128.0	-0.0946956985826133	5.922916641583043	5.82822094300043	477.83745203464656	598.8454286867892	-3.6946564885496183	7.038167938931298	0.8244274809160305	-0.05397301349325337	0.42278860569715143	0.13043478260869565	
1.708952042980326E12	2.6739130434782608	-6.456521739130435	2.25	3909.1575091575087	128.0	128.0	-0.0884932385078953	5.9133244649558625	5.824831226447968	477.8376683995329	598.8425438216382	-3.297709923664122	6.961832061068702	0.48854961832061067	-0.05547226386806597	0.4197901049475262	0.1169415292353823	
1.7089520429998574E12	2.6739130434782608	-6.456521739130435	2.293478260869565	3910.62271062271	128.0	128.0	-0.08553625172808788	5.928253642112451	5.842717390384363	477.8378847644192	598.8531457010681	-3.0076335877862594	6.809160305343511	0.21374045801526717	-0.05547226386806597	0.41379310344827586	0.11394302848575712	
1.7089520430193892E12	2.6956521739130435	-6.467391304347826	2.282608695652174	3887.179487179487	128.0	128.0	-0.06469310101188434	5.925080290446316	5.860387189434432	477.837956886048	598.8546602552725	-3.2671755725190836	6.625954198473282	0.564885496183206	-0.05247376311844078	0.4197901049475262	0.13193403298350825	
1.708952043038921E12	2.7065217391304346	-6.489130434782608	2.2717391304347827	3912.0879120879117	128.0	128.0	-0.0219249751478404	5.952053779608462	5.9301288044606215	477.83838961582063	598.8411013890626	-3.7251908396946565	7.206106870229007	0.549618320610687	-0.06746626686656672	0.41379310344827586	0.1394302848575712	
1.7089520430584524E12	2.717391304347826	-6.5	2.293478260869565	3910.62271062271	128.0	128.0	-0.040820841887097586	5.911232937721365	5.870412095834267	477.835072020897	598.8364134831921	-3.4045801526717554	6.580152671755725	0.9618320610687022	-0.04947526236881559	0.4257871064467766	0.13043478260869565	
1.7089520430779841E12	2.6739130434782608	-6.478260869565217	2.282608695652174	3910.62271062271	128.0	128.0	-0.048249369651004036	5.885990367649838	5.837740997998834	477.83557687229836	598.8209794546342	-3.0534351145038165	7.007633587786259	0.7938931297709924	-0.05397301349325337	0.4287856071964018	0.12293853073463268	
1.7089520430975156E12	2.7065217391304346	-6.456521739130435	2.282608695652174	3884.249084249084	128.0	128.0	-0.07089556108660235	5.887577043482906	5.816681482396303	477.8375962779041	598.8276146444815	-2.564885496183206	6.7328244274809155	0.7480916030534351	-0.05997001499250375	0.416791604197901	0.12893553223388304	
1.7089520431170474E12	2.7391304347826084	-6.423913043478261	2.2282608695652173	3912.0879120879117	128.0	128.0	-0.07882894025193933	5.874234542159384	5.7954056019074445	477.83485565601063	598.8205467248615	-2.8702290076335877	6.519083969465648	0.8091603053435115	-0.046476761619190406	0.4257871064467766	0.11244377811094453	
1.708952043136579E12	2.75	-6.467391304347826	2.282608695652174	3909.1575091575087	128.0	128.0	-0.0798386430548004	5.888442503028214	5.808603859973414	477.8356489939272	598.8093678724013	-3.633587786259542	6.213740458015267	0.9312977099236641	-0.041979010494752625	0.4257871064467766	0.13043478260869565	
1.7089520431561106E12	2.7282608695652173	-6.489130434782608	2.282608695652174	3912.0879120879117	128.0	128.0	-0.07414103438151293	6.161278624687031	6.0871375903055185	477.8365144534725	598.8822828390936	-4.183206106870228	6.625954198473282	0.6259541984732824	-0.05547226386806597	0.424287856071964	0.12443778110944527	
1.7089520431756423E12	2.7282608695652173	-6.489130434782608	2.2717391304347827	3884.249084249084	128.0	128.0	0.34106318248071466	6.18067934282772	6.521742525308434	477.83276412877615	598.6043260817917	-2.9770992366412212	6.854961832061068	0.732824427480916	-0.06896551724137931	0.4287856071964018	0.11244377811094453	
1.708952043195174E12	2.7065217391304346	-6.445652173913043	2.25	3912.0879120879117	128.0	128.0	-0.08128107563031622	5.725591865252479	5.644310789622163	477.8391108321084	598.503211558248	-3.1908396946564883	7.511450381679389	0.5801526717557252	-0.05547226386806597	0.43478260869565216	0.13493253373313344	
1.7089520432147056E12	2.75	-6.456521739130435	2.2065217391304346	3910.62271062271	128.0	128.0	-0.10847092967878935	5.7909340609233455	5.682463131244556	477.83485565601063	598.7065945513957	-3.3893129770992365	6.183206106870228	0.9465648854961831	-0.04947526236881559	0.4332833583208396	0.12293853073463268	
1.7089520432342373E12	2.7282608695652173	-6.456521739130435	2.2282608695652173	3909.1575091575087	128.0	128.0	-0.0649815875269875	5.86846481185732	5.803483224330333	477.83442292623795	598.8377837941389	-2.6412213740458013	7.480916030534351	0.7480916030534351	-0.06296851574212893	0.43178410794602695	0.1394302848575712	
1.7089520432537688E12	2.684782608695652	-6.467391304347826	2.2717391304347827	3884.249084249084	128.0	128.0	-0.04565299101507557	5.854978067276248	5.809325076261172	477.8356489939272	598.8508378089473	-4.916030534351145	6.809160305343511	0.564885496183206	-0.05697151424287856	0.4287856071964018	0.13043478260869565	
1.7089520432733005E12	2.717391304347826	-6.5	2.260869565217391	3909.1575091575087	128.0	128.0	-0.03231048969155427	5.857790810798504	5.82548032110695	477.83528838578326	598.8524244847804	-4.809160305343512	7.068702290076335	0.8549618320610687	-0.06596701649175413	0.42278860569715143	0.14392803598200898	
1.7089520432928323E12	2.717391304347826	-6.467391304347826	2.260869565217391	3910.62271062271	128.0	128.0	-0.036709909046877515	5.855915648450334	5.819205739403456	477.83543262904084	598.8827155688663	-2.427480916030534	7.98473282442748	1.4198473282442747	-0.0704647676161919	0.424287856071964	0.13493253373313344	
1.7089520433123638E12	2.684782608695652	-6.413043478260869	2.25	3910.62271062271	128.0	128.0	-0.01831889370905086	5.8450974041339645	5.826778510424914	477.83471141275305	598.8816337444346	-2.549618320610687	7.3893129770992365	1.7099236641221374	-0.06296851574212893	0.43178410794602695	0.1394302848575712	
1.7089520433318955E12	2.717391304347826	-6.434782608695652	2.25	3884.249084249084	128.0	128.0	0.004038811211444284	5.844592552732534	5.848631363943978	477.83615384532857	598.9081745038241	-4.763358778625954	7.114503816793893	1.3435114503816794	-0.06146926536731634	0.41829085457271364	0.13343328335832083	
1.7089520433514272E12	2.6956521739130435	-6.478260869565217	2.3152173913043477	3912.0879120879117	128.0	128.0	0.017741920678844534	5.862406595040155	5.880148515718999	477.83471141275305	598.917550315565	-6.641221374045801	7.099236641221374	0.8549618320610687	-0.04947526236881559	0.41079460269865065	0.13343328335832083	
1.7089520433709587E12	2.7065217391304346	-6.565217391304348	2.1956521739130435	3910.62271062271	128.0	128.0	0.05387485669551572	5.871638163523455	5.925513020218971	477.83442292623795	598.9509426296881	-4.030534351145038	7.068702290076335	1.0076335877862594	-0.041979010494752625	0.41529235382308843	0.1199400299850075	
1.7089520433904905E12	2.7065217391304346	-6.510869565217391	2.2391304347826084	3909.1575091575087	128.0	128.0	0.061880357489628494	5.9088529239717635	5.970733281461392	477.83362958832146	598.9602463198003	-1.3282442748091603	7.145038167938931	0.916030534351145	-0.06746626686656672	0.42728635682158916	0.11394302848575712	
1.7089520434100222E12	2.6956521739130435	-6.456521739130435	2.282608695652174	3909.1575091575087	128.0	128.0	0.08077622422888568	5.9136850730997415	5.994461297328627	477.8334132234351	598.9527456704076	-2.610687022900763	7.068702290076335	1.3893129770992365	-0.05247376311844078	0.43478260869565216	0.13193403298350825	
1.7089520434295537E12	2.6739130434782608	-6.478260869565217	2.2282608695652173	3910.62271062271	128.0	128.0	0.07010222317006864	5.920320262947114	5.990422486117183	477.83355746669264	598.9272867354497	-3.465648854961832	6.8396946564885495	1.4045801526717556	-0.05697151424287856	0.43628185907046474	0.12593703148425786	
1.7089520434490854E12	2.7065217391304346	-6.467391304347826	2.2391304347826084	3909.1575091575087	128.0	128.0	0.04392207192445659	5.907554734653799	5.951476806578256	477.83514414252573	598.9058666117032	-2.427480916030534	6.824427480916031	1.2213740458015268	-0.06746626686656672	0.424287856071964	0.12143928035982009	
1.708952043468617E12	2.6956521739130435	-6.445652173913043	2.25	3910.62271062271	128.0	128.0	-0.010385514543713874	5.884764299960649	5.874378785416935	477.83485565601063	598.8790373657987	-3.4351145038167936	6.65648854961832	0.9770992366412213	-0.04947526236881559	0.42278860569715143	0.12593703148425786	
1.7089520434881487E12	2.6956521739130435	-6.489130434782608	2.2717391304347827	3884.249084249084	128.0	128.0	-0.024954083556423614	5.867599352312011	5.842645268755588	477.8339901964653	598.8666324456492	-3.0534351145038165	7.129770992366412	1.2061068702290076	-0.06296851574212893	0.42728635682158916	0.12443778110944527	
1.7089520435076804E12	2.6956521739130435	-6.467391304347826	2.2391304347826084	3912.0879120879117	128.0	128.0	-0.03851294976627228	5.87430666378816	5.835793714021888	477.8343508046092	598.8625936344378	-3.679389312977099	5.709923664122138	0.9312977099236641	-0.05397301349325337	0.4257871064467766	0.12593703148425786	
1.708952043527212E12	2.6630434782608696	-6.5	2.3152173913043477	3912.0879120879117	128.0	128.0	-0.04204690957628603	5.847044688110911	5.8049977785346245	477.83413443972285	598.8641803102709	-4.122137404580153	6.870229007633587	1.2061068702290076	-0.06596701649175413	0.41529235382308843	0.13043478260869565	
1.7089520435467437E12	2.6630434782608696	-6.456521739130435	2.1847826086956523	3910.62271062271	128.0	128.0	-0.046085720787730315	5.876181826136331	5.8300961053486	477.8373799130178	598.8712482298909	-2.717557251908397	6.2748091603053435	1.1450381679389312	-0.06296851574212893	0.4197901049475262	0.13193403298350825	
1.7089520435662754E12	2.652173913043478	-6.467391304347826	2.2717391304347827	3912.0879120879117	128.0	128.0	-0.03743112533463542	5.869907244432837	5.832476119098201	477.83413443972285	598.8710318650045	-2.3664122137404577	6.458015267175572	1.4351145038167938	-0.05397301349325337	0.4287856071964018	0.13343328335832083	
1.708952043585807E12	2.6956521739130435	-6.478260869565217	2.25	3910.62271062271	128.0	128.0	-0.03562808461524065	5.884547935074322	5.848919850459081	477.83572111555594	598.8685076079975	-2.717557251908397	6.122137404580153	1.0687022900763359	-0.04947526236881559	0.4047976011994003	0.12593703148425786	
1.7089520436053386E12	2.6956521739130435	-6.467391304347826	2.217391304347826	3909.1575091575087	128.0	128.0	-0.04998028874162302	5.9160650868493425	5.866084798107719	477.83572111555594	598.8666324456492	-3.068702290076336	5.526717557251908	1.1450381679389312	-0.047976011994003	0.43928035982008995	0.13493253373313344	
1.70895204362487E12	2.684782608695652	-6.467391304347826	2.260869565217391	3910.62271062271	128.0	128.0	-0.0509178699157083	5.898251044541722	5.847333174626014	477.83615384532857	598.8741330950419	-2.183206106870229	5.587786259541985	1.2061068702290076	-0.0704647676161919	0.416791604197901	0.12443778110944527	
1.7089520436444019E12	2.6956521739130435	-6.478260869565217	2.260869565217391	3887.179487179487	128.0	128.0	-0.052360302491224114	5.910872329577486	5.858512027086261	477.83615384532857	598.8723300543226	-2.8244274809160306	6.030534351145038	0.564885496183206	-0.08095952023988005	0.4407796101949025	0.1199400299850075	
1.7089520436639336E12	2.6956521739130435	-6.5	2.282608695652174	3912.0879120879117	128.0	128.0	-0.05632699207389261	5.905535329048077	5.8492083369741845	477.8369471832451	598.8688682161413	-3.2671755725190836	6.015267175572519	0.7175572519083969	-0.06596701649175413	0.42278860569715143	0.13043478260869565	
1.708952043683465E12	2.6956521739130435	-6.5	2.3043478260869565	3912.0879120879117	128.0	128.0	-0.0602936816565611	5.913973559614845	5.8536798779582835	477.83658657510125	598.8647572833011	-2.6564885496183206	6.198473282442748	0.6870229007633587	-0.05547226386806597	0.424287856071964	0.11394302848575712	
1.7089520437029968E12	2.6739130434782608	-6.467391304347826	2.2282608695652173	3909.1575091575087	128.0	128.0	-0.0501245319991746	5.917868127568737	5.8677435955695625	477.8373799130178	598.8623051479227	-2.396946564885496	6.366412213740458	0.7938931297709924	-0.04047976011994003	0.4197901049475262	0.1169415292353823	
1.7089520437225286E12	2.6956521739130435	-6.456521739130435	2.260869565217391	3910.62271062271	128.0	128.0	-0.05207181597612095	5.9338791291569635	5.881807313180842	477.83774052116166	598.8607184720896	-2.0610687022900764	6.549618320610687	0.7633587786259541	-0.06146926536731634	0.4257871064467766	0.13043478260869565	
1.70895204374206E12	2.6956521739130435	-6.467391304347826	2.282608695652174	3910.62271062271	128.0	128.0	-0.0359886927591196	5.955876225933579	5.919887533174459	477.83802900767677	598.8636754588695	-1.8931297709923662	6.6106870229007635	0.8549618320610687	-0.046476761619190406	0.42278860569715143	0.13043478260869565	
1.7089520437615918E12	2.6956521739130435	-6.456521739130435	2.260869565217391	3909.1575091575087	128.0	128.0	-0.006274581703493798	5.974483606157733	5.968209024454239	477.8359374804423	598.8610790802335	-2.4580152671755724	6.8396946564885495	0.7480916030534351	-0.047976011994003	0.40929535232383807	0.12893553223388304	
1.7089520437811235E12	2.684782608695652	-6.489130434782608	2.282608695652174	3910.62271062271	128.0	128.0	-0.012260676891884434	5.965179916045656	5.952919239153772	477.8359374804423	598.8607184720896	-2.213740458015267	7.007633587786259	0.366412213740458	-0.05697151424287856	0.41829085457271364	0.13043478260869565	
1.708952043800655E12	2.6739130434782608	-6.478260869565217	2.282608695652174	3887.179487179487	128.0	128.0	-0.024016502382338333	5.927676669082245	5.903660166699907	477.8373799130178	598.8493953763718	-2.2900763358778624	7.190839694656488	0.5343511450381679	-0.05247376311844078	0.42728635682158916	0.11394302848575712	
1.7089520438201868E12	2.6956521739130435	-6.467391304347826	2.260869565217391	3912.0879120879117	128.0	128.0	-0.07601619672968349	5.946788900707829	5.870772703978146	477.8385338590782	598.8553093499314	-2.015267175572519	6.7328244274809155	0.41221374045801523	-0.06146926536731634	0.41829085457271364	0.12293853073463268	
1.7089520438397183E12	2.6956521739130435	-6.434782608695652	2.260869565217391	3912.0879120879117	128.0	128.0	-0.06988585828374128	5.928542128627554	5.858656270343813	477.8363702102149	598.8423995783805	-2.5343511450381677	7.175572519083969	0.0	-0.06596701649175413	0.4332833583208396	0.12293853073463268	
1.70895204385925E12	2.6956521739130435	-6.467391304347826	2.293478260869565	3910.62271062271	128.0	128.0	-0.08669019778850053	5.956236834077457	5.869546636288957	477.8373799130178	598.8418226053503	-3.6488549618320607	6.977099236641221	-0.32061068702290074	-0.06146926536731634	0.42278860569715143	0.12293853073463268	
1.7089520438787817E12	2.7282608695652173	-6.5	2.380434782608696	3910.62271062271	128.0	128.0	-0.13731958118910567	6.179236910252203	6.041917329063097	477.8384617374494	598.9035587195824	-3.633587786259542	6.8396946564885495	0.33587786259541985	-0.05997001499250375	0.43178410794602695	0.1169415292353823	
1.7089520438983132E12	2.684782608695652	-6.521739130434782	2.3152173913043477	3912.0879120879117	128.0	128.0	0.2074939259879501	6.104158294696605	6.311652220684555	477.8372356697602	598.8460777814481	-2.0763358778625953	6.946564885496183	0.3969465648854962	-0.05397301349325337	0.4257871064467766	0.1199400299850075	
1.708952043917845E12	2.6956521739130435	-6.5	2.2717391304347827	3882.7838827838827	128.0	128.0	0.03829658487994491	5.866878136024253	5.905174720904198	477.83983204839615	598.4864793403721	-0.3969465648854962	7.129770992366412	0.183206106870229	-0.06296851574212893	0.4197901049475262	0.11394302848575712	
1.7089520439373767E12	2.717391304347826	-6.467391304347826	2.2717391304347827	3910.62271062271	128.0	128.0	-0.12563587732742756	5.855915648450333	5.730279771122905	477.8390387104796	598.6449305587925	-0.5343511450381679	6.763358778625954	0.33587786259541985	-0.06146926536731634	0.4257871064467766	0.11544227886056971	
1.7089520439569082E12	2.6956521739130435	-6.413043478260869	2.2717391304347827	3882.7838827838827	128.0	128.0	-0.09245992809056379	5.971670862635477	5.879210934544914	477.8391108321084	598.8526408496667	-1.0381679389312977	6.99236641221374	0.3053435114503817	-0.04947526236881559	0.41829085457271364	0.1199400299850075	
1.70895204397644E12	2.6630434782608696	-6.456521739130435	2.4239130434782608	3912.0879120879117	128.0	128.0	-0.09462357695383751	5.983643053012259	5.889019476058421	477.84040902142635	598.8682912431111	-3.3435114503816794	6.534351145038167	0.13740458015267176	-0.05697151424287856	0.42278860569715143	0.12293853073463268	
1.7089520439959714E12	2.717391304347826	-6.5	2.3260869565217392	3910.62271062271	128.0	128.0	-0.0783240888505088	5.986383674905738	5.90805958605523	477.838605980707	598.8738446085268	-3.847328244274809	6.412213740458015	0.15267175572519084	-0.04947526236881559	0.42278860569715143	0.10194902548725637	
1.7089520440155032E12	2.6739130434782608	-6.456521739130435	2.3260869565217392	3910.62271062271	128.0	128.0	-0.0703907096851718	5.993090986381887	5.922700276696715	477.83925507536594	598.8845907312144	-0.7022900763358778	7.099236641221374	0.4580152671755725	-0.05997001499250375	0.4197901049475262	0.13193403298350825	
1.708952044035035E12	2.7065217391304346	-6.434782608695652	2.3369565217391304	3912.0879120879117	128.0	128.0	-0.06007731677023373	5.998932838312726	5.938855521542492	477.84026477816883	598.8812731362907	-0.6259541984732824	7.007633587786259	1.0534351145038168	-0.05997001499250375	0.4197901049475262	0.12143928035982009	
1.7089520440545664E12	2.6739130434782608	-6.445652173913043	2.293478260869565	3910.62271062271	128.0	128.0	-0.039666895826684936	6.008308650053579	5.968641754226894	477.8388944672221	598.8951204890157	-1.984732824427481	5.801526717557252	0.8091603053435115	-0.05547226386806597	0.42728635682158916	0.12893553223388304	
1.7089520440740981E12	2.7065217391304346	-6.445652173913043	2.3369565217391304	3910.62271062271	128.0	128.0	-0.030795935487262668	6.0124195828937985	5.981623647406536	477.8390387104796	598.911419977119	-3.5114503816793894	5.526717557251908	0.21374045801526717	-0.05997001499250375	0.4422788605697151	0.12443778110944527	
1.70895204409363E12	2.760869565217391	-6.510869565217391	2.380434782608696	3910.62271062271	128.0	128.0	0.0038945679538927025	6.042061572320649	6.045956140274542	477.8390387104796	598.9398358988567	-4.366412213740458	5.984732824427481	0.41221374045801523	-0.05697151424287856	0.43628185907046474	0.12593703148425786	
1.7089520441131614E12	2.7282608695652173	-6.521739130434782	2.3260869565217392	3887.179487179487	128.0	128.0	0.02574742147295731	6.055115587129068	6.080863008602025	477.8393271969947	598.9485626159385	-1.5877862595419847	6.366412213740458	0.1984732824427481	-0.04497751124437781	0.424287856071964	0.12893553223388304	
1.708952044132693E12	2.7391304347826084	-6.434782608695652	2.358695652173913	3912.0879120879117	128.0	128.0	0.04219115283383761	6.0751653999287365	6.117356552762574	477.84141872422924	598.9401965070006	-1.7557251908396947	5.572519083969466	-0.030534351145038167	-0.05397301349325337	0.4287856071964018	0.11544227886056971	
1.7089520441522249E12	2.7282608695652173	-6.456521739130435	2.3043478260869565	3910.62271062271	128.0	128.0	0.038657193023823866	6.104518902840484	6.143176095864308	477.8397599267674	598.9261327893893	-3.3587786259541983	5.877862595419847	0.47328244274809156	-0.05397301349325337	0.4332833583208396	0.12293853073463268	
1.7089520441717563E12	2.7391304347826084	-6.467391304347826	2.3369565217391304	3909.1575091575087	128.0	128.0	0.008943081968198058	6.120169296284831	6.129112378253029	477.8399041700249	598.890216218259	-2.4122137404580153	6.2748091603053435	0.4580152671755725	-0.05547226386806597	0.42728635682158916	0.12143928035982009	
1.708952044191288E12	2.7391304347826084	-6.456521739130435	2.3478260869565215	3910.62271062271	128.0	128.0	-0.04485965309854187	6.114038957838889	6.069179304740347	477.8404811430551	598.863819702127	-1.7251908396946565	6.854961832061068	0.4427480916030534	-0.05547226386806597	0.424287856071964	0.12893553223388304	
1.7089520442108196E12	2.782608695652174	-6.467391304347826	2.369565217391304	3910.62271062271	128.0	128.0	-0.05308151877898202	6.075165399928737	6.022083881149755	477.8403368997976	598.8461499030769	-2.519083969465649	6.885496183206107	0.6717557251908397	-0.04047976011994003	0.42728635682158916	0.13493253373313344	
1.7089520442303513E12	2.7391304347826084	-6.467391304347826	2.293478260869565	3882.7838827838827	128.0	128.0	-0.07464588578294347	6.088435779623483	6.013789893840539	477.8413466026004	598.8518475117502	-3.312977099236641	6.595419847328244	0.3053435114503817	-0.05697151424287856	0.4257871064467766	0.1199400299850075	
1.708952044249883E12	2.8043478260869565	-6.489130434782608	2.391304347826087	3910.62271062271	128.0	128.0	-0.07724226441887193	6.085695157730003	6.008452893311131	477.84141872422924	598.8452123219029	-3.541984732824427	6.6106870229007635	0.5190839694656488	-0.05247376311844078	0.4197901049475262	0.12143928035982009	
1.7089520442694146E12	2.7065217391304346	-6.478260869565217	2.282608695652174	3884.249084249084	128.0	128.0	-0.08741141407625844	6.086200009131432	5.998788595055174	477.84278903517594	598.8408850241763	-2.778625954198473	7.633587786259541	0.1984732824427481	-0.05247376311844078	0.43178410794602695	0.1169415292353823	
1.7089520442889463E12	2.7282608695652173	-6.423913043478261	2.3152173913043477	3912.0879120879117	128.0	128.0	-0.06829918245067387	6.1056728489008965	6.037373666450223	477.84314964331986	598.8315092124354	-0.6259541984732824	7.694656488549618	0.8854961832061068	-0.06746626686656672	0.43178410794602695	0.11394302848575712	
1.708952044308478E12	2.7282608695652173	-6.445652173913043	2.380434782608696	3910.62271062271	128.0	128.0	-0.05993307351268214	6.10459102446926	6.044657950956577	477.84538541381187	598.8180224678543	-2.3053435114503817	7.0534351145038165	0.7938931297709924	-0.05697151424287856	0.42278860569715143	0.12593703148425786	
1.7089520443280095E12	2.7391304347826084	-6.423913043478261	2.3043478260869565	3909.1575091575087	128.0	128.0	-0.059716708626354774	6.114111079467664	6.054394370841309	477.8441593461227	598.8200418734601	-3.9541984732824424	6.885496183206107	0.8244274809160305	-0.06596701649175413	0.4287856071964018	0.13343328335832083	
1.7089520443475413E12	2.7391304347826084	-6.478260869565217	2.358695652173913	3910.62271062271	128.0	128.0	-0.06433249286800538	6.115048660641749	6.050716167773744	477.8423563054033	598.8240085630428	-2.4122137404580153	6.916030534351145	0.7786259541984732	-0.04047976011994003	0.42728635682158916	0.12893553223388304	
1.7089520443670728E12	2.7391304347826084	-6.478260869565217	2.380434782608696	3912.0879120879117	128.0	128.0	-0.056399113702668396	6.130554810828545	6.074155697125876	477.8420678188882	598.8073484667956	-2.3206106870229006	6.748091603053435	0.8091603053435115	-0.06596701649175413	0.41079460269865065	0.11544227886056971	
1.7089520443866045E12	2.7282608695652173	-6.510869565217391	2.3478260869565215	3909.1575091575087	128.0	128.0	-0.05510092438470416	6.121467485602795	6.066366561218091	477.84423146775146	598.8051848179323	-2.595419847328244	7.297709923664121	0.9618320610687022	-0.05997001499250375	0.424287856071964	0.13193403298350825	
1.7089520444061362E12	2.7282608695652173	-6.434782608695652	2.3478260869565215	3910.62271062271	128.0	128.0	-0.06397188472412643	6.125506296814239	6.061534412090112	477.8470442112737	598.8004969120618	-2.549618320610687	7.206106870229007	0.8702290076335878	-0.06146926536731634	0.42278860569715143	0.12593703148425786	
1.7089520444256677E12	2.717391304347826	-6.467391304347826	2.3478260869565215	3888.6446886446884	128.0	128.0	-0.05300939715020623	6.138993041395312	6.085983644245106	477.84697208964496	598.8009296418345	-3.0381679389312977	6.8396946564885495	1.3587786259541985	-0.047976011994003	0.4422788605697151	0.1169415292353823	
1.7089520444451995E12	2.717391304347826	-6.456521739130435	2.3260869565217392	3912.0879120879117	128.0	128.0	-0.04110932840220075	6.1423106363189985	6.1012013079167975	477.84495268403924	598.7949435466461	-1.6030534351145038	6.778625954198473	1.1908396946564885	-0.04947526236881559	0.42278860569715143	0.1199400299850075	
1.7089520444647312E12	2.7282608695652173	-6.445652173913043	2.369565217391304	3912.0879120879117	128.0	128.0	-0.04175842306118287	6.170149585026454	6.128391161965271	477.8462508733572	598.7929962626691	-2.4885496183206106	7.2824427480916025	1.4045801526717556	-0.05547226386806597	0.42728635682158916	0.1169415292353823	
1.7089520444842627E12	2.7065217391304346	-6.445652173913043	2.369565217391304	3909.1575091575087	128.0	128.0	-0.004760027499202192	6.1735393015789155	6.168779274079713	477.8447363191529	598.7855677349053	-3.0534351145038165	7.129770992366412	1.4198473282442747	-0.06296851574212893	0.43178410794602695	0.12143928035982009	
1.7089520445037944E12	2.7282608695652173	-6.445652173913043	2.380434782608696	3882.7838827838827	128.0	128.0	-0.010169149657386502	6.147791880105959	6.137622730448572	477.8438708596076	598.7798701262319	-2.6259541984732824	7.099236641221374	1.282442748091603	-0.05697151424287856	0.42278860569715143	0.12293853073463268	
1.7089520445233262E12	2.717391304347826	-6.467391304347826	2.402173913043478	3910.62271062271	128.0	128.0	-0.026252272874387847	6.140146987455724	6.1138947145813365	477.8444478326378	598.7813125588075	-2.091603053435114	6.99236641221374	1.5419847328244274	-0.06146926536731634	0.42278860569715143	0.12293853073463268	
1.7089520445428577E12	2.7065217391304346	-6.478260869565217	2.380434782608696	3885.7142857142853	128.0	128.0	-0.060654289800440055	6.142094271432671	6.081439981632231	477.845024805668	598.7678979358552	-2.213740458015267	6.977099236641221	1.4351145038167938	-0.046476761619190406	0.41829085457271364	0.12593703148425786	
1.7089520445623894E12	2.7282608695652173	-6.434782608695652	2.358695652173913	3910.62271062271	128.0	128.0	-0.05293727552143044	6.131420270373854	6.078482994852424	477.84538541381187	598.7575124213115	-2.396946564885496	6.748091603053435	1.2366412213740459	-0.06296851574212893	0.43178410794602695	0.13493253373313344	
1.708952044581921E12	2.7065217391304346	-6.467391304347826	2.380434782608696	3885.7142857142853	128.0	128.0	-0.07291496669232449	6.156807083702932	6.083892117010608	477.84610663009965	598.7637148813861	-3.7862595419847325	6.931297709923664	1.2213740458015268	-0.05247376311844078	0.43478260869565216	0.11094452773613193	
1.7089520446014526E12	2.6956521739130435	-6.467391304347826	2.369565217391304	3912.0879120879117	128.0	128.0	-0.08964718456830795	6.382187173627278	6.29253998905897	477.8456017786982	598.8264606984211	-3.0839694656488548	7.083969465648854	1.0381679389312977	-0.05397301349325337	0.41529235382308843	0.12293853073463268	
1.7089520446209844E12	2.684782608695652	-6.456521739130435	2.391304347826087	3910.62271062271	128.0	128.0	0.24139109151257176	6.340645115452423	6.582036206964995	477.8457460219558	598.7321256079824	-3.32824427480916	6.900763358778626	1.129770992366412	-0.05697151424287856	0.4257871064467766	0.12593703148425786	
1.7089520446405159E12	2.7065217391304346	-6.445652173913043	2.3260869565217392	3909.1575091575087	128.0	128.0	-0.025098326813975193	6.075309643186288	6.050211316372313	477.84877513036434	598.4453700119699	-3.6488549618320607	6.854961832061068	1.0229007633587786	-0.05547226386806597	0.416791604197901	0.12143928035982009	
1.7089520446600476E12	2.7391304347826084	-6.423913043478261	2.282608695652174	3912.0879120879117	128.0	128.0	-0.10342241566448399	6.028286341224473	5.924863925559989	477.8461787517284	598.5862956745977	-3.0839694656488548	6.748091603053435	1.3129770992366412	-0.06896551724137931	0.4407796101949025	0.13793103448275862	
1.7089520446795793E12	2.6956521739130435	-6.391304347826087	2.3478260869565215	3909.1575091575087	128.0	128.0	-0.06476522264066013	6.1413009335161375	6.076535710875477	477.8453132921831	598.7627051785834	-3.068702290076336	6.961832061068702	0.916030534351145	-0.047976011994003	0.43178410794602695	0.12143928035982009	
1.7089520446991108E12	2.652173913043478	-6.456521739130435	2.402173913043478	3912.0879120879117	128.0	128.0	-0.05502880275592837	6.144330041924721	6.089301239168792	477.8464672382435	598.7664555032796	-5.877862595419847	6.946564885496183	0.5954198473282443	-0.05697151424287856	0.4257871064467766	0.12293853073463268	
1.7089520447186426E12	2.717391304347826	-6.5	2.380434782608696	3910.62271062271	128.0	128.0	-0.03642142253177435	6.14519550147003	6.108774078938255	477.84610663009965	598.7870822891095	-6.442748091603053	7.083969465648854	1.3129770992366412	-0.06596701649175413	0.4257871064467766	0.1199400299850075	
1.708952044738174E12	2.7065217391304346	-6.467391304347826	2.3260869565217392	3887.179487179487	128.0	128.0	-0.021708610261513026	6.145339744727581	6.123631134466068	477.8454575354407	598.784341667216	-3.145038167938931	7.526717557251908	1.0229007633587786	-0.04947526236881559	0.4332833583208396	0.13043478260869565	
1.7089520447577058E12	2.6956521739130435	-6.423913043478261	2.358695652173913	3912.0879120879117	128.0	128.0	-0.014857055527812902	6.1522634210900575	6.137406365562245	477.8451690489256	598.7852792483901	-3.679389312977099	7.816793893129771	1.5725190839694656	-0.05547226386806597	0.416791604197901	0.12143928035982009	
1.7089520447772375E12	2.684782608695652	-6.434782608695652	2.282608695652174	3912.0879120879117	128.0	128.0	-0.010169149657386502	6.156951326960484	6.1467821773030975	477.8447363191529	598.7939338438432	-5.175572519083969	6.5038167938931295	1.0229007633587786	-0.06146926536731634	0.4287856071964018	0.13043478260869565	
1.708952044796769E12	2.717391304347826	-6.456521739130435	2.3478260869565215	3907.6923076923076	128.0	128.0	0.00822186568044015	6.1694283687386955	6.1776502344191355	477.8461787517284	598.7992708443727	-5.984732824427481	6.198473282442748	0.7480916030534351	-0.05247376311844078	0.43178410794602695	0.10644677661169415	
1.7089520448163008E12	2.684782608695652	-6.532608695652174	2.358695652173913	3884.249084249084	128.0	128.0	0.04738391010569455	6.167625328019301	6.2150092381249955	477.84524117055435	598.8244412928154	-5.801526717557252	6.641221374045801	0.5801526717557252	-0.05697151424287856	0.4332833583208396	0.1199400299850075	
1.7089520448358325E12	2.717391304347826	-6.510869565217391	2.358695652173913	3910.62271062271	128.0	128.0	0.06642402010250331	6.196618222787169	6.263042242889672	477.84278903517594	598.8301389014887	-4.198473282442748	6.7328244274809155	0.8244274809160305	-0.05997001499250375	0.43178410794602695	0.12143928035982009	
1.708952044855364E12	2.717391304347826	-6.489130434782608	2.3369565217391304	3910.62271062271	128.0	128.0	0.08272350820583203	6.218759562821337	6.301483071027168	477.84286115680476	598.8308601177764	-3.9389312977099236	6.65648854961832	0.7786259541984732	-0.05547226386806597	0.43178410794602695	0.11394302848575712	
1.7089520448748958E12	2.717391304347826	-6.467391304347826	2.293478260869565	3912.0879120879117	128.0	128.0	0.06801069593557071	6.246598511528792	6.314609207464363	477.8445920758954	598.8113151563782	-3.83206106870229	6.534351145038167	1.0229007633587786	-0.05697151424287856	0.42278860569715143	0.13043478260869565	
1.7089520448944275E12	2.684782608695652	-6.456521739130435	2.3369565217391304	3885.7142857142853	128.0	128.0	0.02841592173766157	6.238809375621007	6.267225297358668	477.84228418377455	598.7854234916477	-3.3740458015267176	6.366412213740458	1.1603053435114503	-0.05247376311844078	0.4197901049475262	0.13193403298350825	
1.708952044913959E12	2.7065217391304346	-6.445652173913043	2.3043478260869565	3912.0879120879117	128.0	128.0	-0.008582473824319104	6.230731753198118	6.222149279373799	477.8426447919184	598.7521032991533	-4.793893129770992	6.1679389312977095	1.0687022900763359	-0.05397301349325337	0.41829085457271364	0.13343328335832083	
1.7089520449334907E12	2.7282608695652173	-6.489130434782608	2.3152173913043477	3910.62271062271	128.0	128.0	-0.019689204655790885	6.210609818769672	6.190920614113882	477.84336600820615	598.7440256767304	-4.396946564885496	6.854961832061068	1.3893129770992365	-0.05697151424287856	0.4257871064467766	0.11244377811094453	
1.7089520449530222E12	2.7282608695652173	-6.478260869565217	2.293478260869565	3907.6923076923076	128.0	128.0	-0.026973489162145755	6.199142479794321	6.1721689906321755	477.842139940517	598.751886934267	-3.633587786259542	6.65648854961832	0.4580152671755725	-0.05547226386806597	0.416791604197901	0.13193403298350825	
1.708952044972554E12	2.717391304347826	-6.478260869565217	2.369565217391304	3910.62271062271	128.0	128.0	-0.02553105658662994	6.196906709302271	6.171375652715642	477.84141872422924	598.7459729607074	-4.091603053435114	6.473282442748092	1.0534351145038168	-0.041979010494752625	0.42278860569715143	0.12293853073463268	
1.7089520449920857E12	2.717391304347826	-6.434782608695652	2.1739130434782608	3910.62271062271	128.0	128.0	-0.02755046219235208	6.20000793933963	6.172457477147279	477.8417793323731	598.7533293668424	-3.3587786259541983	7.038167938931298	1.1755725190839694	-0.06296851574212893	0.43478260869565216	0.13493253373313344	
1.7089520450116172E12	2.684782608695652	-6.413043478260869	2.3152173913043477	3910.62271062271	128.0	128.0	-0.013847352724951831	6.190776370856329	6.176929018131378	477.84228418377455	598.7482808528282	-2.045801526717557	7.190839694656488	0.9770992366412213	-0.06146926536731634	0.4287856071964018	0.12293853073463268	
1.708952045031149E12	2.684782608695652	-6.434782608695652	2.3369565217391304	3912.0879120879117	128.0	128.0	-0.014352204126382367	6.2040467505510755	6.189694546424693	477.84336600820615	598.7540505831303	-6.015267175572519	6.793893129770992	0.732824427480916	-0.05547226386806597	0.43478260869565216	0.13493253373313344	
1.7089520450506807E12	2.7065217391304346	-6.532608695652174	2.260869565217391	3887.179487179487	128.0	128.0	-0.018463136966602442	6.2181104681623545	6.199647331195752	477.8412023593429	598.7435929469577	-5.465648854961832	6.412213740458015	1.0381679389312977	-0.06596701649175413	0.4332833583208396	0.13043478260869565	
1.7089520450702122E12	2.7065217391304346	-6.489130434782608	2.3369565217391304	3912.0879120879117	128.0	128.0	-0.014424325755158158	6.216235305814184	6.201810980059026	477.84192357563063	598.7294571077177	-3.0534351145038165	6.809160305343511	0.8091603053435115	-0.05397301349325337	0.4332833583208396	0.12293853073463268	
1.708952045089744E12	2.6956521739130435	-6.478260869565217	2.3043478260869565	3910.62271062271	128.0	128.0	-0.008366108937991732	6.210465575512121	6.202099466574129	477.84084175119904	598.7271492155969	-3.3893129770992365	7.206106870229007	0.9770992366412213	-0.05997001499250375	0.4197901049475262	0.1169415292353823	
1.7089520451092754E12	2.717391304347826	-6.489130434782608	2.3043478260869565	3907.6923076923076	128.0	128.0	-0.02012193442844563	6.188324235477952	6.168202301049507	477.8399041700249	598.7327747026413	-4.0	6.900763358778626	1.083969465648855	-0.0704647676161919	0.416791604197901	0.12443778110944527	
1.7089520451288071E12	2.6739130434782608	-6.478260869565217	2.3260869565217392	3882.7838827838827	128.0	128.0	-0.02077102908742775	6.189189695023262	6.168418665935834	477.8388223455933	598.7226776746128	-3.5877862595419847	6.99236641221374	1.1603053435114503	-0.05697151424287856	0.4047976011994003	0.13343328335832083	
1.7089520451483389E12	2.6630434782608696	-6.445652173913043	2.293478260869565	3910.62271062271	128.0	128.0	-0.014857055527812902	6.187458775932643	6.17260172040483	477.83925507536594	598.7296013509753	-3.4351145038167936	7.32824427480916	1.2519083969465647	-0.04947526236881559	0.42278860569715143	0.13043478260869565	
1.7089520451678704E12	2.684782608695652	-6.434782608695652	2.260869565217391	3909.1575091575087	128.0	128.0	7.933379165336986E-4	6.193300627863483	6.1940939657800165	477.83831749419187	598.7293128644601	-3.114503816793893	7.007633587786259	1.3282442748091603	-0.04497751124437781	0.43178410794602695	0.13193403298350825	
1.708952045187402E12	2.684782608695652	-6.478260869565217	2.3152173913043477	3910.62271062271	128.0	128.0	0.009303690112077012	6.213783170435807	6.223086860547884	477.84026477816883	598.7282310400285	-3.618320610687023	7.022900763358779	1.6030534351145038	-0.06296851574212893	0.4197901049475262	0.1169415292353823	
1.7089520452069338E12	2.6956521739130435	-6.489130434782608	2.2717391304347827	3887.179487179487	128.0	128.0	0.05877912745226949	6.22315898217666	6.281938109628929	477.8396878051386	598.726139512794	-4.0	7.190839694656488	1.4045801526717556	-0.04947526236881559	0.4257871064467766	0.12293853073463268	
1.7089520452264653E12	2.7065217391304346	-6.478260869565217	2.3043478260869565	3912.0879120879117	128.0	128.0	0.03851294976627228	6.182049653774459	6.220562603540731	477.84026477816883	598.7182782552575	-3.7557251908396947	7.206106870229007	1.2061068702290076	-0.047976011994003	0.4197901049475262	0.12143928035982009	
1.708952045245997E12	2.684782608695652	-6.467391304347826	2.3043478260869565	3912.0879120879117	128.0	128.0	0.024232867268665706	6.1642356114668395	6.188468478735505	477.83867810233573	598.7262116344227	-3.679389312977099	7.251908396946565	1.618320610687023	-0.06746626686656672	0.4197901049475262	0.12443778110944527	
1.7089520452655288E12	2.6956521739130435	-6.467391304347826	2.260869565217391	3907.6923076923076	128.0	128.0	-0.012044312005557061	6.142382757947774	6.130338445942217	477.84026477816883	598.7167637010532	-3.8625954198473282	7.022900763358779	1.3129770992366412	-0.04947526236881559	0.4407796101949025	0.14392803598200898	
1.7089520452850603E12	2.684782608695652	-6.445652173913043	2.2717391304347827	3910.62271062271	128.0	128.0	-0.0060582168171664265	6.117861404164005	6.111803187346839	477.8403368997976	598.6935405365873	-3.450381679389313	6.671755725190839	1.129770992366412	-0.06146926536731634	0.41529235382308843	0.11544227886056971	
1.708952045304592E12	2.684782608695652	-6.467391304347826	2.3043478260869565	3910.62271062271	128.0	128.0	-0.023006799579477263	6.1348099869263155	6.111803187346839	477.83925507536594	598.7039981727598	-3.7862595419847325	6.793893129770992	0.8091603053435115	-0.05997001499250375	0.4197901049475262	0.12893553223388304	
1.7089520453241235E12	2.684782608695652	-6.478260869565217	2.3043478260869565	3910.62271062271	128.0	128.0	-0.06707311476148543	6.368772550674981	6.301699435913496	477.8399041700249	598.7465499337376	-4.351145038167939	6.625954198473282	0.7175572519083969	-0.05547226386806597	0.42728635682158916	0.12893553223388304	
1.7089520453436553E12	2.684782608695652	-6.5	2.260869565217391	3910.62271062271	128.0	128.0	0.42400305557287404	6.488205967927691	6.912209023500565	477.8370914265027	598.409958292241	-3.5114503816793894	6.473282442748092	1.129770992366412	-0.06746626686656672	0.42728635682158916	0.13193403298350825	
1.708952045363187E12	2.6739130434782608	-6.467391304347826	2.2717391304347827	3885.7142857142853	128.0	128.0	0.07817984559295721	6.017395975279329	6.095575820872286	477.8393993186235	598.357814354636	-2.8091603053435112	6.900763358778626	0.9465648854961831	-0.06596701649175413	0.4257871064467766	0.12593703148425786	
1.7089520453827185E12	2.7065217391304346	-6.489130434782608	2.260869565217391	3912.0879120879117	128.0	128.0	-0.053297883665309395	5.989701269829425	5.936403386164115	477.8396156835098	598.5562209553982	-2.6259541984732824	6.809160305343511	1.2366412213740459	-0.05997001499250375	0.43928035982008995	0.13193403298350825	
1.7089520454022502E12	2.684782608695652	-6.467391304347826	2.25	3910.62271062271	128.0	128.0	-0.014857055527812902	6.097595226478008	6.082738170950195	477.83716354813146	598.7515984477518	-1.7404580152671756	5.938931297709924	0.9770992366412213	-0.05997001499250375	0.416791604197901	0.12443778110944527	
1.708952045421782E12	2.641304347826087	-6.456521739130435	2.3260869565217392	3906.227106227106	128.0	128.0	-0.004904270756753774	6.096008550644941	6.091104279888187	477.84026477816883	598.7676815709689	-4.198473282442748	6.564885496183206	0.6870229007633587	-0.07346326836581708	0.41829085457271364	0.12593703148425786	
1.7089520454413135E12	2.6956521739130435	-6.510869565217391	2.25	3882.7838827838827	128.0	128.0	0.006490946589821171	6.110000146627444	6.116491093217265	477.8384617374494	598.7861447079355	-5.969465648854961	6.473282442748092	0.6106870229007634	-0.06146926536731634	0.41829085457271364	0.13343328335832083	
1.7089520454608452E12	2.7391304347826084	-6.5	2.282608695652174	3910.62271062271	128.0	128.0	0.01759767742129295	6.092113982691048	6.109711660112341	477.8375962779041	598.7985496280849	-3.0229007633587783	6.442748091603053	1.0229007633587786	-0.05997001499250375	0.416791604197901	0.12893553223388304	
1.7089520454803767E12	2.6630434782608696	-6.434782608695652	2.2717391304347827	3910.62271062271	128.0	128.0	0.03310382760808797	6.103364956780071	6.13646878438816	477.8378847644192	598.8027326825539	-1.2061068702290076	7.3893129770992365	1.3435114503816794	-0.05247376311844078	0.416791604197901	0.12893553223388304	
1.7089520454999084E12	2.6739130434782608	-6.423913043478261	2.2282608695652173	3910.62271062271	128.0	128.0	0.04897058593876195	6.09824432113699	6.147214907075752	477.8378126427904	598.8126133456961	-2.6564885496183206	6.061068702290076	1.2213740458015268	-0.05547226386806597	0.424287856071964	0.12143928035982009	
1.7089520455194402E12	2.641304347826087	-6.478260869565217	2.282608695652174	3885.7142857142853	128.0	128.0	0.060870654686767424	6.111298335945408	6.1721689906321755	477.837956886048	598.8234315900125	-4.763358778625954	6.137404580152672	1.1603053435114503	-0.06746626686656672	0.416791604197901	0.1424287856071964	
1.7089520455389717E12	2.684782608695652	-6.489130434782608	2.3260869565217392	3912.0879120879117	128.0	128.0	0.09433509043873435	6.121395363974019	6.215730454412753	477.8362259669574	598.8628099993241	-5.022900763358779	6.671755725190839	1.129770992366412	-0.06146926536731634	0.41079460269865065	0.13043478260869565	
1.7089520455585034E12	2.7391304347826084	-6.5	2.260869565217391	3910.62271062271	128.0	128.0	0.11604370070024737	6.149017947795147	6.2650616484953945	477.83665869673	598.878604636026	-3.4045801526717554	6.473282442748092	1.0534351145038168	-0.06746626686656672	0.40929535232383807	0.12893553223388304	
1.7089520455780352E12	2.7065217391304346	-6.456521739130435	2.2717391304347827	3906.227106227106	128.0	128.0	0.13739170281788146	6.160557408399273	6.297949111217155	477.8365144534725	598.8811288930332	-2.6259541984732824	6.534351145038167	0.9312977099236641	-0.05547226386806597	0.41379310344827586	0.13493253373313344	
1.7089520455975667E12	2.6630434782608696	-6.467391304347826	2.217391304347826	3912.0879120879117	128.0	128.0	0.13263167531867925	6.166759868473991	6.29939154379267	477.8365144534725	598.8643245535284	-3.3587786259541983	7.145038167938931	1.099236641221374	-0.05247376311844078	0.4197901049475262	0.11094452773613193	
1.7089520456170984E12	2.6630434782608696	-6.445652173913043	2.260869565217391	3912.0879120879117	128.0	128.0	0.08409381915257207	6.169788976882575	6.253882796035147	477.8370193048739	598.8259558470197	-3.0839694656488548	6.65648854961832	1.083969465648855	-0.0704647676161919	0.42728635682158916	0.1169415292353823	
1.7089520456366301E12	2.684782608695652	-6.478260869565217	2.2717391304347827	3910.62271062271	128.0	128.0	0.05986095188390635	6.136901514160814	6.196762466044721	477.83514414252573	598.8062666423639	-3.465648854961832	6.641221374045801	1.0534351145038168	-0.06146926536731634	0.4287856071964018	0.13343328335832083	
1.7089520456561616E12	2.6956521739130435	-6.467391304347826	2.260869565217391	3912.0879120879117	128.0	128.0	0.0446432882122145	6.102138889090883	6.1467821773030975	477.8360817236998	598.8015787364935	-4.549618320610687	6.7328244274809155	1.1603053435114503	-0.05997001499250375	0.41379310344827586	0.13193403298350825	
1.7089520456756934E12	2.6956521739130435	-6.478260869565217	2.217391304347826	3887.179487179487	128.0	128.0	0.039883260713012306	6.087642441706949	6.127525702419962	477.83615384532857	598.7898950326318	-3.3893129770992365	6.900763358778626	1.2213740458015268	-0.0704647676161919	0.424287856071964	0.12893553223388304	
1.7089520456952249E12	2.6956521739130435	-6.456521739130435	2.3369565217391304	3912.0879120879117	128.0	128.0	0.046229964045281895	6.073939332239548	6.12016929628483	477.8365144534725	598.7966023441079	-2.4580152671755724	6.793893129770992	0.9923664122137404	-0.04947526236881559	0.4077961019490255	0.1409295352323838	
1.7089520457147566E12	2.6630434782608696	-6.467391304347826	2.1847826086956523	3910.62271062271	128.0	128.0	0.03959477419790914	6.078555116481199	6.118149890679108	477.8357932371847	598.8000641822891	-3.541984732824427	7.465648854961832	1.3435114503816794	-0.04947526236881559	0.4332833583208396	0.13043478260869565	
1.7089520457342883E12	2.641304347826087	-6.467391304347826	2.260869565217391	3906.227106227106	128.0	128.0	0.0493311940826409	6.064852007013799	6.11418320109644	477.83586535881346	598.8037423853567	-2.33587786259542	7.251908396946565	1.1755725190839694	-0.05697151424287856	0.42278860569715143	0.13343328335832083	
1.7089520457538198E12	2.641304347826087	-6.445652173913043	2.3043478260869565	3912.0879120879117	128.0	128.0	0.0602936816565611	6.057856209022547	6.118149890679108	477.8349277776394	598.7973235603957	-3.5877862595419847	7.190839694656488	1.450381679389313	-0.05697151424287856	0.42278860569715143	0.12593703148425786	
1.7089520457733516E12	2.652173913043478	-6.5	2.2391304347826084	3912.0879120879117	128.0	128.0	0.06317854680759273	6.042422180464528	6.105600727272121	477.83485565601063	598.7937896005857	-4.442748091603053	6.7328244274809155	1.4045801526717556	-0.06896551724137931	0.4047976011994003	0.13043478260869565	
1.7089520457928833E12	2.7065217391304346	-6.489130434782608	2.25	3909.1575091575087	128.0	128.0	0.053514248551636764	6.020641448574239	6.074155697125876	477.8363702102149	598.8028048041826	-3.312977099236641	7.1603053435114505	1.0229007633587786	-0.05997001499250375	0.40629685157421286	0.1394302848575712	
1.7089520458124148E12	2.7065217391304346	-6.478260869565217	2.2717391304347827	3912.0879120879117	128.0	128.0	0.06231308726228324	6.012635947780127	6.07494903504241	477.83528838578326	598.7922029247526	-2.9618320610687023	6.931297709923664	1.099236641221374	-0.047976011994003	0.43478260869565216	0.1169415292353823	
1.7089520458319465E12	2.684782608695652	-6.489130434782608	2.2717391304347827	3887.179487179487	128.0	128.0	0.06123126283064638	5.989629148200649	6.050860411031295	477.8359374804423	598.8188879273997	-3.66412213740458	6.824427480916031	1.1603053435114503	-0.05547226386806597	0.416791604197901	0.13193403298350825	
1.708952045851478E12	2.652173913043478	-6.467391304347826	2.3043478260869565	3912.0879120879117	128.0	128.0	0.06916464199598336	5.984941242330223	6.054105884326206	477.8367308183588	598.8167242785364	-3.5725190839694654	6.99236641221374	1.3435114503816794	-0.06296851574212893	0.42728635682158916	0.13493253373313344	
1.7089520458710098E12	2.6630434782608696	-6.489130434782608	2.293478260869565	3910.62271062271	128.0	128.0	0.06389976309535064	5.973690268241199	6.03759003133655	477.83514414252573	598.8174454948241	-3.3435114503816794	7.221374045801526	1.450381679389313	-0.046476761619190406	0.42278860569715143	0.13043478260869565	
1.7089520458905415E12	2.652173913043478	-6.467391304347826	2.25	3904.7619047619046	128.0	128.0	0.07616043998723507	5.972247835665684	6.0484082756529185	477.8355047506696	598.8320140638368	-3.129770992366412	7.236641221374046	1.3129770992366412	-0.05397301349325337	0.41529235382308843	0.11244377811094453	
1.708952045910073E12	2.630434782608696	-6.467391304347826	2.25	3910.62271062271	128.0	128.0	0.07702589953254456	6.011265636833387	6.088291536365931	477.8343508046092	598.8341055910713	-2.8091603053435112	7.099236641221374	1.1450381679389312	-0.047976011994003	0.42728635682158916	0.12443778110944527	
1.7089520459296047E12	2.6739130434782608	-6.489130434782608	2.260869565217391	3920.879120879121	128.0	128.0	0.13515593232583195	6.017468096908105	6.1526240292339365	477.8363702102149	598.838072280654	-3.5572519083969465	7.022900763358779	1.2061068702290076	-0.04947526236881559	0.41529235382308843	0.13343328335832083	
1.7089520459491365E12	2.684782608695652	-6.489130434782608	2.3043478260869565	3895.9706959706955	128.0	128.0	0.12166918774475906	5.992730378238008	6.114399565982767	477.83665869673	598.8354037803894	-3.6488549618320607	7.145038167938931	1.2213740458015268	-0.04947526236881559	0.42278860569715143	0.13343328335832083	
1.708952045968668E12	2.684782608695652	-6.467391304347826	2.2717391304347827	3910.62271062271	128.0	128.0	0.11784674141964215	5.939216129686371	6.057062871106013	477.83478353438187	598.8354759020181	-3.465648854961832	7.114503816793893	1.2519083969465647	-0.047976011994003	0.43178410794602695	0.13193403298350825	
1.7089520459881997E12	2.6630434782608696	-6.467391304347826	2.260869565217391	3887.179487179487	128.0	128.0	0.0822907784331773	5.920031776432012	6.002322554865189	477.8370193048739	598.8405244160324	-3.1908396946564883	7.297709923664121	1.1450381679389312	-0.05997001499250375	0.42728635682158916	0.11394302848575712	
1.7089520460077314E12	2.6630434782608696	-6.456521739130435	2.2717391304347827	3912.0879120879117	128.0	128.0	0.0703907096851718	5.923205128098146	5.993595837783317	477.8370193048739	598.8468711193647	-2.8091603053435112	6.702290076335878	0.916030534351145	-0.06746626686656672	0.4197901049475262	0.12893553223388304	
1.708952046027263E12	2.6630434782608696	-6.456521739130435	2.2282608695652173	3912.0879120879117	128.0	128.0	0.07248223691966975	5.920031776432011	5.9925140133516805	477.8356489939272	598.8429765514107	-3.3893129770992365	6.900763358778626	0.6717557251908397	-0.06746626686656672	0.4197901049475262	0.12443778110944527	
1.7089520460467947E12	2.6739130434782608	-6.489130434782608	2.2717391304347827	3904.7619047619046	128.0	128.0	0.013414622952297086	6.097450983220456	6.110865606172753	477.83600960207104	598.8887016640547	-4.152671755725191	6.961832061068702	0.7633587786259541	-0.05247376311844078	0.424287856071964	0.12443778110944527	
1.7089520460663262E12	2.652173913043478	-6.489130434782608	2.25	3912.0879120879117	128.0	128.0	0.48206096673738563	6.146133082644115	6.628194049381501	477.8352162641545	598.6920981040118	-3.679389312977099	6.99236641221374	0.9007633587786259	-0.04947526236881559	0.42278860569715143	0.1199400299850075	
1.708952046085858E12	2.6630434782608696	-6.467391304347826	2.25	3910.62271062271	128.0	128.0	0.38080219993617537	5.793746804445601	6.174549004381777	477.83644233184367	598.4918884625303	-3.0381679389312977	6.8396946564885495	0.6717557251908397	-0.05247376311844078	0.424287856071964	0.13193403298350825	
1.7089520461053896E12	2.684782608695652	-6.445652173913043	2.217391304347826	3910.62271062271	128.0	128.0	0.03223836806277848	5.810983873723015	5.843222241785794	477.83802900767677	598.7286637698012	-2.3206106870229006	6.961832061068702	0.9618320610687022	-0.05697151424287856	0.43628185907046474	0.13343328335832083	
1.7089520461249211E12	2.6630434782608696	-6.456521739130435	2.217391304347826	3910.62271062271	128.0	128.0	0.08315623797848679	5.87243150143999	5.955587739418476	477.8355047506696	598.8540832822423	-2.931297709923664	6.183206106870228	0.9312977099236641	-0.04947526236881559	0.41829085457271364	0.12293853073463268	
1.708952046144453E12	2.608695652173913	-6.489130434782608	2.3152173913043477	3887.179487179487	128.0	128.0	0.09130598203015114	5.872647866326317	5.963953848356468	477.8369471832451	598.8756476492462	-3.9847328244274807	7.2824427480916025	0.5190839694656488	-0.05397301349325337	0.4332833583208396	0.12293853073463268	
1.7089520461639846E12	2.6739130434782608	-6.510869565217391	2.25	3885.7142857142853	128.0	128.0	0.10479272661122402	5.876470312651433	5.981263039262657	477.83413443972285	598.8762967439052	-4.5038167938931295	6.564885496183206	0.6106870229007634	-0.05397301349325337	0.41829085457271364	0.11544227886056971	
1.708952046183516E12	2.6956521739130435	-6.445652173913043	2.260869565217391	3910.62271062271	128.0	128.0	0.11027397039818411	5.8650029736760825	5.975276944074267	477.83456716949553	598.8864658935626	-2.595419847328244	6.763358778625954	1.0534351145038168	-0.06146926536731634	0.41529235382308843	0.13043478260869565	
1.7089520462030479E12	2.652173913043478	-6.445652173913043	2.25	3904.7619047619046	128.0	128.0	0.12022675516924325	5.872431501439989	5.992658256609232	477.8346392911243	598.9041356926126	-2.0	7.6183206106870225	1.2366412213740459	-0.04497751124437781	0.4197901049475262	0.1169415292353823	
1.7089520462225793E12	2.630434782608696	-6.434782608695652	2.25	3912.0879120879117	128.0	128.0	0.13587714861358985	5.8595217298891225	5.995398878502712	477.83456716949553	598.9125018015507	-3.480916030534351	7.114503816793893	1.2519083969465647	-0.04947526236881559	0.4257871064467766	0.12593703148425786	
1.708952046242111E12	2.641304347826087	-6.521739130434782	2.293478260869565	3910.62271062271	128.0	128.0	0.16212942148797768	5.865435703448737	6.027565124936715	477.8342786829804	598.9377443716222	-3.83206106870229	6.259541984732824	1.1450381679389312	-0.06746626686656672	0.41379310344827586	0.12443778110944527	
1.7089520462616428E12	2.6739130434782608	-6.521739130434782	2.282608695652174	3900.3663003663	128.0	128.0	0.18116953148478646	5.88339398901391	6.064563520498696	477.8349277776394	598.9580105493081	-3.877862595419847	6.595419847328244	0.9007633587786259	-0.06146926536731634	0.41829085457271364	0.11544227886056971	
1.7089520462811743E12	2.684782608695652	-6.489130434782608	2.25	3910.62271062271	128.0	128.0	0.21665337284247552	5.869041784887528	6.085695157730003	477.83543262904084	598.9618329956332	-3.709923664122137	6.824427480916031	0.916030534351145	-0.05247376311844078	0.424287856071964	0.12893553223388304	
1.708952046300706E12	2.652173913043478	-6.489130434782608	2.25	3884.249084249084	128.0	128.0	0.23475590166519902	5.9136850730997415	6.148440974764941	477.83413443972285	598.9747427671841	-2.748091603053435	6.931297709923664	0.9770992366412213	-0.03298350824587706	0.4197901049475262	0.12143928035982009	
1.7089520463202378E12	2.630434782608696	-6.467391304347826	2.217391304347826	3910.62271062271	128.0	128.0	0.23663106401336959	5.9099347484034	6.14656581241677	477.83290837203367	598.9549093192708	-2.595419847328244	6.564885496183206	0.9007633587786259	-0.06596701649175413	0.41529235382308843	0.12593703148425786	
1.7089520463397693E12	2.641304347826087	-6.456521739130435	2.260869565217391	3910.62271062271	128.0	128.0	0.2042484526930395	5.889524327459852	6.093772780152891	477.83413443972285	598.91430484227	-2.7022900763358777	6.717557251908397	0.9465648854961831	-0.041979010494752625	0.41829085457271364	0.12593703148425786	
1.708952046359301E12	2.6630434782608696	-6.445652173913043	2.260869565217391	3903.296703296703	128.0	128.0	0.17020704391086627	5.8622623517826025	6.032469395693469	477.83326898017754	598.887619839623	-3.5267175572519083	6.900763358778626	0.6870229007633587	-0.05997001499250375	0.4197901049475262	0.12443778110944527	
1.7089520463788328E12	2.6739130434782608	-6.510869565217391	2.2717391304347827	3910.62271062271	128.0	128.0	0.13991595982503413	5.83096156489391	5.970877524718944	477.83413443972285	598.880551920003	-4.1679389312977095	6.824427480916031	0.8702290076335878	-0.05247376311844078	0.42728635682158916	0.12443778110944527	
1.7089520463983643E12	2.630434782608696	-6.489130434782608	2.2065217391304346	3910.62271062271	128.0	128.0	0.13818504073441515	5.825840929250829	5.964025969985244	477.83305261529125	598.8818501093209	-3.6946564885496183	7.221374045801526	0.9007633587786259	-0.06146926536731634	0.41529235382308843	0.11544227886056971	
1.708952046417896E12	2.6739130434782608	-6.478260869565217	2.2717391304347827	3909.1575091575087	128.0	128.0	0.1332807699776614	5.801103210580732	5.934383980558393	477.83543262904084	598.8625936344378	-2.381679389312977	6.702290076335878	0.9312977099236641	-0.05247376311844078	0.40929535232383807	0.12443778110944527	
1.7089520464374275E12	2.630434782608696	-6.478260869565217	2.1956521739130435	3910.62271062271	128.0	128.0	0.13739170281788146	5.790140723006812	5.927532425824693	477.8355047506696	598.865766986104	-2.900763358778626	7.2824427480916025	0.7786259541984732	-0.07796101949025487	0.41379310344827586	0.12893553223388304	
1.7089520464569592E12	2.630434782608696	-6.467391304347826	2.25	3884.249084249084	128.0	128.0	0.14092566262789522	5.787183736227004	5.928109398854899	477.8355047506696	598.8639639453845	-1.9083969465648853	6.900763358778626	0.8549618320610687	-0.047976011994003	0.416791604197901	0.13193403298350825	
1.708952046476491E12	2.619565217391304	-6.423913043478261	2.293478260869565	3912.0879120879117	128.0	128.0	0.15239300160324593	5.7809812761522865	5.933374277755532	477.83312473692	598.867353661937	-3.145038167938931	7.251908396946565	1.0687022900763359	-0.06146926536731634	0.41829085457271364	0.12593703148425786	
1.7089520464960225E12	2.652173913043478	-6.5	2.2065217391304346	3910.62271062271	128.0	128.0	0.15239300160324593	5.78040430312208	5.932797304725326	477.8334853450639	598.8694451891715	-5.007633587786259	6.6106870229007635	1.0076335877862594	-0.05247376311844078	0.43478260869565216	0.1169415292353823	
1.7089520465155542E12	2.652173913043478	-6.478260869565217	2.25	3903.296703296703	128.0	128.0	0.15210451508814277	5.786029790166592	5.938134305254734	477.8352162641545	598.8747821897009	-3.5877862595419847	6.809160305343511	0.8396946564885496	-0.04497751124437781	0.40929535232383807	0.12143928035982009	
1.708952046535086E12	2.652173913043478	-6.456521739130435	2.293478260869565	3912.0879120879117	128.0	128.0	0.1564318128146902	5.79857895357358	5.95501076638827	477.8334132234351	598.8671372970507	-2.33587786259542	6.625954198473282	0.6870229007633587	-0.05247376311844078	0.4197901049475262	0.13193403298350825	
1.7089520465546174E12	2.641304347826087	-6.489130434782608	2.260869565217391	3912.0879120879117	128.0	128.0	0.16176881334409873	5.786534641568022	5.948303454912121	477.833773831579	598.8806240416318	-3.83206106870229	6.99236641221374	0.9618320610687022	-0.05997001499250375	0.4197901049475262	0.12143928035982009	
1.7089520465741492E12	2.652173913043478	-6.5	2.282608695652174	3910.62271062271	128.0	128.0	0.1542681639514165	5.787400101113333	5.941668265064749	477.833773831579	598.8760803790188	-3.450381679389313	7.175572519083969	0.7633587786259541	-0.05697151424287856	0.4257871064467766	0.1409295352323838	
1.7089520465936807E12	2.652173913043478	-6.478260869565217	2.2717391304347827	3910.62271062271	128.0	128.0	0.16241790800308087	5.788265560658641	5.9506834686617225	477.83528838578326	598.8773064467081	-2.4427480916030535	6.885496183206107	1.1450381679389312	-0.06146926536731634	0.4077961019490255	0.13043478260869565	
1.7089520466132124E12	2.652173913043478	-6.456521739130435	2.2391304347826084	3884.249084249084	128.0	128.0	0.1629227594045114	5.785164330621282	5.948087090025794	477.8359374804423	598.8756476492462	-2.6412213740458013	7.145038167938931	0.9465648854961831	-0.06596701649175413	0.41829085457271364	0.11244377811094453	
1.7089520466327441E12	2.652173913043478	-6.478260869565217	2.25	3912.0879120879117	128.0	128.0	0.18376591012071494	5.811200238609342	5.994966148730057	477.8334853450639	598.8755755276175	-2.9923664122137406	6.8396946564885495	0.8396946564885496	-0.05247376311844078	0.43178410794602695	0.12893553223388304	
1.7089520466522756E12	2.6739130434782608	-6.456521739130435	2.2282608695652173	3910.62271062271	128.0	128.0	0.2193218731071798	5.813436009101392	6.032757882208572	477.83572111555594	598.8771622034506	-2.8702290076335877	6.824427480916031	0.564885496183206	-0.046476761619190406	0.4257871064467766	0.1199400299850075	
1.7089520466718074E12	2.6739130434782608	-6.478260869565217	2.282608695652174	3903.296703296703	128.0	128.0	0.23439529352132008	5.784443114333524	6.018838407854845	477.83615384532857	598.8647572833011	-3.16030534351145	7.038167938931298	0.8549618320610687	-0.05247376311844078	0.40929535232383807	0.12143928035982009	
1.708952046691339E12	2.641304347826087	-6.456521739130435	2.260869565217391	3910.62271062271	128.0	128.0	0.1949447625809625	5.766845436912232	5.961790199493194	477.8353605074121	598.8775949332231	-3.2061068702290076	7.022900763358779	0.5954198473282443	-0.06746626686656672	0.42728635682158916	0.11094452773613193	
1.7089520467108706E12	2.641304347826087	-6.5	2.2717391304347827	3910.62271062271	128.0	128.0	0.1668173273584041	5.756099314224638	5.9229166415830425	477.83478353438187	598.8664160807629	-3.068702290076336	6.641221374045801	0.32061068702290074	-0.06596701649175413	0.42278860569715143	0.13343328335832083	
1.7089520467304023E12	2.652173913043478	-6.478260869565217	2.2282608695652173	3903.296703296703	128.0	128.0	0.1698464357669873	5.752853840929728	5.922700276696715	477.83334110180635	598.8691567026564	-2.8091603053435112	6.717557251908397	0.4580152671755725	-0.06896551724137931	0.4257871064467766	0.12293853073463268	
1.708952046749934E12	2.630434782608696	-6.445652173913043	2.260869565217391	3910.62271062271	128.0	128.0	0.15599908304203547	5.760715098466289	5.916714181508325	477.8356489939272	598.8741330950419	-2.748091603053435	6.442748091603053	0.16793893129770993	-0.05397301349325337	0.42278860569715143	0.12293853073463268	
1.7089520467694656E12	2.652173913043478	-6.5	2.3043478260869565	3885.7142857142853	128.0	128.0	0.11525036278371369	5.844881039247637	5.960131402031351	477.8356489939272	598.888557420797	-3.633587786259542	6.6106870229007635	0.2595419847328244	-0.06596701649175413	0.4332833583208396	0.12293853073463268	
1.7089520467889973E12	2.6630434782608696	-6.489130434782608	2.293478260869565	3912.0879120879117	128.0	128.0	0.4555202073478946	5.903155315298476	6.3586755226463705	477.8334853450639	598.8664882023917	-3.3740458015267176	6.534351145038167	0.564885496183206	-0.06746626686656672	0.42728635682158916	0.1169415292353823	
1.7089520468085288E12	2.6630434782608696	-6.467391304347826	2.260869565217391	3912.0879120879117	128.0	128.0	0.6303430355004115	5.784443114333524	6.414786149833936	477.8363702102149	598.5078994641185	-2.0	6.625954198473282	0.5038167938931297	-0.05697151424287856	0.42278860569715143	0.12593703148425786	
1.7089520468280605E12	2.6739130434782608	-6.467391304347826	2.25	3900.3663003663	128.0	128.0	0.12866498573601076	5.6513787092421905	5.780043694978201	477.83615384532857	598.672408899356	-1.282442748091603	6.717557251908397	0.2900763358778626	-0.06746626686656672	0.41379310344827586	0.12443778110944527	
1.7089520468475923E12	2.6956521739130435	-6.423913043478261	2.1956521739130435	3912.0879120879117	128.0	128.0	0.148931163422008	5.74477621850684	5.893707381928848	477.83449504786677	598.8543717687573	-2.091603053435114	6.442748091603053	0.6412213740458015	-0.04947526236881559	0.41529235382308843	0.13343328335832083	
1.7089520468671238E12	2.641304347826087	-6.456521739130435	2.3478260869565215	3910.62271062271	128.0	128.0	0.1557105965269323	5.771461221153881	5.927171817680814	477.8362259669574	598.8893507587136	-1.7251908396946565	6.99236641221374	0.32061068702290074	-0.06146926536731634	0.4257871064467766	0.12293853073463268	
1.7089520468866555E12	2.684782608695652	-6.521739130434782	2.2717391304347827	3910.62271062271	128.0	128.0	0.17121674671372733	5.781846735697596	5.9530634824113235	477.8363702102149	598.893389569925	-4.122137404580153	6.366412213740458	0.3511450381679389	-0.06146926536731634	0.41529235382308843	0.13043478260869565	
1.7089520469061873E12	2.6630434782608696	-6.478260869565217	2.260869565217391	3910.62271062271	128.0	128.0	0.18030407193947698	5.762734504072012	5.943038576011489	477.83615384532857	598.8942550294704	-3.3740458015267176	6.65648854961832	0.5801526717557252	-0.05697151424287856	0.4287856071964018	0.13343328335832083	
1.7089520469257188E12	2.6630434782608696	-6.456521739130435	2.282608695652174	3887.179487179487	128.0	128.0	0.18989624856665716	5.770884248123676	5.960780496690333	477.8367308183588	598.9058666117032	-0.6412213740458015	6.99236641221374	0.8854961832061068	-0.04947526236881559	0.41829085457271364	0.12593703148425786	
1.7089520469452505E12	2.652173913043478	-6.423913043478261	2.2282608695652173	3912.0879120879117	128.0	128.0	0.20547452038222797	5.747733205286647	5.953207725668875	477.8372356697602	598.9133672610959	-1.7557251908396947	6.885496183206107	1.0534351145038168	-0.05997001499250375	0.42728635682158916	0.12893553223388304	
1.708952046964782E12	2.641304347826087	-6.467391304347826	2.282608695652174	3912.0879120879117	128.0	128.0	0.22379341409127881	5.765114517821612	5.988907931912891	477.8357932371847	598.927503100336	-3.3893129770992365	6.015267175572519	1.0229007633587786	-0.05397301349325337	0.4257871064467766	0.13793103448275862	
1.7089520469843137E12	2.6739130434782608	-6.521739130434782	2.3260869565217392	3903.296703296703	128.0	128.0	0.25408449817711093	5.771749707668985	6.025834205846096	477.8363702102149	598.946182602189	-4.122137404580153	5.908396946564885	0.6106870229007634	-0.07346326836581708	0.4257871064467766	0.12293853073463268	
1.7089520470038455E12	2.7065217391304346	-6.532608695652174	2.282608695652174	3912.0879120879117	128.0	128.0	0.2815628387406872	5.7861019117953685	6.067664750536055	477.83485565601063	598.967746969193	-3.969465648854962	6.5038167938931295	0.6870229007633587	-0.06746626686656672	0.42728635682158916	0.1169415292353823	
1.708952047023377E12	2.6739130434782608	-6.478260869565217	2.2717391304347827	3910.62271062271	128.0	128.0	0.291299258625419	5.810190535806481	6.101489794431901	477.8352162641545	598.9663766582462	-1.618320610687023	6.473282442748092	0.47328244274809156	-0.05547226386806597	0.42728635682158916	0.12443778110944527	
1.7089520470429087E12	2.6739130434782608	-6.467391304347826	2.2717391304347827	3910.62271062271	128.0	128.0	0.3056514627518014	5.814229347017926	6.119880809769727	477.83615384532857	598.9462547238177	-1.2213740458015268	6.427480916030534	0.33587786259541985	-0.06746626686656672	0.41379310344827586	0.12443778110944527	
1.7089520470624404E12	2.6630434782608696	-6.434782608695652	2.25	3910.62271062271	128.0	128.0	0.27752402752924293	5.818268158229371	6.095792185758613	477.83557687229836	598.9057944900745	-1.9389312977099236	6.305343511450381	0.6412213740458015	-0.05547226386806597	0.4197901049475262	0.12143928035982009	
1.708952047081972E12	2.6739130434782608	-6.445652173913043	2.3260869565217392	3885.7142857142853	128.0	128.0	0.23987653730828015	5.806512332738916	6.046388870047196	477.83716354813146	598.881489501177	-1.66412213740458	6.442748091603053	0.549618320610687	-0.05997001499250375	0.42728635682158916	0.12893553223388304	
1.7089520471015037E12	2.7065217391304346	-6.467391304347826	2.3043478260869565	3910.62271062271	128.0	128.0	0.21009030462387857	5.754945368164226	5.965035672788105	477.8370193048739	598.8736282436405	-2.8091603053435112	6.33587786259542	0.2595419847328244	-0.04947526236881559	0.41829085457271364	0.12593703148425786	
1.7089520471210354E12	2.684782608695652	-6.478260869565217	2.3152173913043477	3910.62271062271	128.0	128.0	0.19912781704995836	5.757036895398724	5.9561647124486825	477.83629808858615	598.8651178914449	-3.1908396946564883	6.687022900763359	0.6412213740458015	-0.05247376311844078	0.4197901049475262	0.12893553223388304	
1.708952047140567E12	2.75	-6.5	2.358695652173913	3901.8315018315016	128.0	128.0	0.18419863989336968	5.756748408883621	5.940947048776991	477.83586535881346	598.8690845810277	-2.396946564885496	6.595419847328244	0.5190839694656488	-0.05997001499250375	0.416791604197901	0.13193403298350825	
1.7089520471600986E12	2.6630434782608696	-6.5	2.3043478260869565	3882.7838827838827	128.0	128.0	0.20100297939812892	5.737708298886812	5.9387112782849405	477.8375962779041	598.8670651754219	-2.091603053435114	7.1603053435114505	0.6412213740458015	-0.05997001499250375	0.4197901049475262	0.13493253373313344	
1.7089520471796301E12	2.6630434782608696	-6.445652173913043	2.2391304347826084	3910.62271062271	128.0	128.0	0.19833447913342467	5.7491035162333874	5.947437995366812	477.83896658885084	598.8656227428464	-0.732824427480916	7.206106870229007	0.6717557251908397	-0.047976011994003	0.42728635682158916	0.12443778110944527	
1.7089520471991619E12	2.652173913043478	-6.434782608695652	2.358695652173913	3910.62271062271	128.0	128.0	0.21131637231306702	5.721841540556138	5.933157912869205	477.83867810233573	598.8791816090562	-0.10687022900763359	7.190839694656488	0.7633587786259541	-0.05997001499250375	0.41379310344827586	0.10644677661169415	
1.7089520472186936E12	2.6630434782608696	-6.489130434782608	2.3369565217391304	3910.62271062271	128.0	128.0	0.20879211530591432	5.732731906501283	5.941524021807197	477.8378126427904	598.8621609046652	-2.8244274809160306	6.6106870229007635	0.5190839694656488	-0.06296851574212893	0.43478260869565216	0.12893553223388304	
1.708952047238225E12	2.684782608695652	-6.521739130434782	2.3369565217391304	3884.249084249084	128.0	128.0	0.21672549447125133	5.717514242829591	5.9342397373008415	477.8403368997976	598.8752149194736	-2.748091603053435	6.641221374045801	0.5190839694656488	-0.06146926536731634	0.4257871064467766	0.12293853073463268	
1.7089520472577568E12	2.6956521739130435	-6.478260869565217	2.380434782608696	3912.0879120879117	128.0	128.0	0.22134127871290193	5.71924516192021	5.940586440633112	477.84019265654	598.8765852304203	-1.3893129770992365	6.916030534351145	0.4580152671755725	-0.06746626686656672	0.41379310344827586	0.11394302848575712	
1.7089520472772886E12	2.652173913043478	-6.445652173913043	2.3369565217391304	3917.948717948718	128.0	128.0	0.22040369753881664	5.710085715065683	5.9304894126045005	477.8396156835098	598.8926683536373	-1.7709923664122136	6.748091603053435	0.6412213740458015	-0.06746626686656672	0.43178410794602695	0.12443778110944527	
1.70895204729682E12	2.684782608695652	-6.478260869565217	2.3260869565217392	3903.296703296703	128.0	128.0	0.21809580541799134	5.700854146582383	5.918949952000374	477.84026477816883	598.8881246910245	-2.9923664122137406	6.7328244274809155	0.6870229007633587	-0.05697151424287856	0.41529235382308843	0.13043478260869565	
1.7089520473163518E12	2.6739130434782608	-6.467391304347826	2.358695652173913	3910.62271062271	128.0	128.0	0.21751883238778502	5.69919534912054	5.916714181508325	477.842139940517	598.8896392452288	-2.763358778625954	7.709923664122137	0.6870229007633587	-0.038980509745127435	0.4257871064467766	0.12593703148425786	
1.7089520473358833E12	2.6630434782608696	-6.445652173913043	2.293478260869565	3912.0879120879117	128.0	128.0	0.2301401174235484	5.70157536287014	5.931715480293689	477.84228418377455	598.8914422859481	-1.83206106870229	7.083969465648854	0.7938931297709924	-0.04947526236881559	0.4332833583208396	0.12293853073463268	
1.708952047355415E12	2.684782608695652	-6.434782608695652	2.3478260869565215	3912.0879120879117	128.0	128.0	0.236486820755818	5.706984485028325	5.9434713057841435	477.8435102514637	598.8993756651134	-1.4351145038167938	6.778625954198473	0.8244274809160305	-0.05547226386806597	0.424287856071964	0.1169415292353823	
1.7089520473749468E12	2.6739130434782608	-6.467391304347826	2.3478260869565215	3906.227106227106	128.0	128.0	0.274422797491884	5.727034297827995	6.0014570953198785	477.8432217649486	598.8949762457581	-2.4885496183206106	7.038167938931298	0.8244274809160305	-0.06896551724137931	0.4257871064467766	0.1409295352323838	
1.7089520473944783E12	2.717391304347826	-6.489130434782608	2.369565217391304	3885.7142857142853	128.0	128.0	0.29093865048154005	5.69284864578827	5.98378729626981	477.84084175119904	598.8896392452288	-3.1755725190839694	6.809160305343511	1.0687022900763359	-0.05397301349325337	0.4332833583208396	0.13343328335832083	
1.70895204741401E12	2.7065217391304346	-6.478260869565217	2.369565217391304	3912.0879120879117	128.0	128.0	0.25704148495691836	5.670635184125326	5.927676669082245	477.84192357563063	598.8876919612518	-2.16793893129771	6.916030534351145	0.564885496183206	-0.06596701649175413	0.42278860569715143	0.13793103448275862	
1.7089520474335417E12	2.6739130434782608	-6.456521739130435	2.3369565217391304	3910.62271062271	128.0	128.0	0.23966017242195278	5.6572205611730295	5.896880733594982	477.8430054000623	598.8926683536373	-2.2442748091603053	7.603053435114504	0.183206106870229	-0.05547226386806597	0.41379310344827586	0.1169415292353823	
1.7089520474530732E12	2.6630434782608696	-6.445652173913043	2.3043478260869565	3904.7619047619046	128.0	128.0	0.23050072556742737	5.642219262387664	5.872719987955092	477.84480844078166	598.8874755963654	-2.1526717557251906	7.343511450381679	0.061068702290076333	-0.046476761619190406	0.42278860569715143	0.10794602698650674	
1.708952047472605E12	2.6956521739130435	-6.423913043478261	2.380434782608696	3912.0879120879117	128.0	128.0	0.2310776985976337	5.615317894854295	5.846395593451929	477.8457460219558	598.8958417053034	-2.1526717557251906	7.038167938931298	0.42748091603053434	-0.06296851574212893	0.424287856071964	0.11094452773613193	
1.7089520474921367E12	2.684782608695652	-6.445652173913043	2.402173913043478	3910.62271062271	128.0	128.0	0.18924715390767502	5.719533648435313	5.908780802342988	477.8460345084709	598.916252126247	-2.4732824427480917	6.748091603053435	0.13740458015267176	-0.04947526236881559	0.41829085457271364	0.12293853073463268	
1.7089520475116682E12	2.6630434782608696	-6.478260869565217	2.380434782608696	3909.1575091575087	128.0	128.0	0.5344933908573856	5.775500032365326	6.3099934232227115	477.84524117055435	598.914665450414	-3.679389312977099	6.671755725190839	0.07633587786259542	-0.05397301349325337	0.42278860569715143	0.12593703148425786	
1.7089520475312E12	2.684782608695652	-6.467391304347826	2.380434782608696	3910.62271062271	128.0	128.0	0.6555134839431624	5.663134534732645	6.318648018675807	477.8466114815011	598.5764150114554	-3.1755725190839694	6.870229007633587	0.3969465648854962	-0.05397301349325337	0.4257871064467766	0.12593703148425786	
1.7089520475507314E12	2.717391304347826	-6.445652173913043	2.3478260869565215	3885.7142857142853	128.0	128.0	0.2042484526930395	5.495884477601586	5.700132930294625	477.846322994986	598.7082533488576	-2.0763358778625953	7.1603053435114505	0.2595419847328244	-0.04497751124437781	0.43178410794602695	0.10644677661169415	
1.7089520475702632E12	2.6739130434782608	-6.413043478260869	2.293478260869565	3912.0879120879117	128.0	128.0	0.23151042837028843	5.585171054026015	5.816681482396303	477.8468999680162	598.8654784995888	-1.9236641221374045	6.244274809160305	0.6564885496183206	-0.06896551724137931	0.42278860569715143	0.1199400299850075	
1.708952047589795E12	2.630434782608696	-6.423913043478261	2.4130434782608696	3912.0879120879117	128.0	128.0	0.2703839862804397	5.58884925709358	5.859233243374019	477.84639511661476	598.9096890580283	-1.4351145038167938	7.129770992366412	0.4580152671755725	-0.041979010494752625	0.41829085457271364	0.13043478260869565	
