"sep=	"
Shimmer_6D72_TimestampSync_Unix_CAL	Shimmer_6D72_Accel_LN_X_CAL	Shimmer_6D72_Accel_LN_Y_CAL	Shimmer_6D72_Accel_LN_Z_CAL	Shimmer_6D72_Battery_CAL	Shimmer_6D72_ECG_EMG_Status1_CAL	Shimmer_6D72_ECG_EMG_Status2_CAL	Shimmer_6D72_ECG_LA-RA_24BIT_CAL	Shimmer_6D72_ECG_LL-LA_24BIT_CAL	Shimmer_6D72_ECG_LL-RA_24BIT_CAL	Shimmer_6D72_ECG_RESP_24BIT_CAL	Shimmer_6D72_ECG_Vx-RL_24BIT_CAL	Shimmer_6D72_Gyro_X_CAL	Shimmer_6D72_Gyro_Y_CAL	Shimmer_6D72_Gyro_Z_CAL	Shimmer_6D72_Mag_X_CAL	Shimmer_6D72_Mag_Y_CAL	Shimmer_6D72_Mag_Z_CAL	
ms	m/(s^2)	m/(s^2)	m/(s^2)	mV	no_units	no_units	mV	mV	mV	mV	mV	deg/s	deg/s	deg/s	local_flux	local_flux	local_flux	
1.7089523298425156E12	2.608695652173913	-6.445652173913043	2.0217391304347827	3909.1575091575087	128.0	128.0	-1.6697599494171083	5.410203982615946	3.7404440331988376	477.8957263106974	597.7018681409202	-1.4198473282442747	7.0534351145038165	1.4045801526717556	-0.05397301349325337	0.41829085457271364	0.13043478260869565	
1.7089523298620474E12	2.5869565217391304	-6.4021739130434785	2.0652173913043477	3901.8315018315016	128.0	128.0	-1.6655768949481125	5.401549387162851	3.7359724922147386	477.893923269978	597.7080706009949	-2.854961832061069	5.7251908396946565	0.6717557251908397	-0.05547226386806597	0.41379310344827586	0.11394302848575712	
1.708952329881579E12	2.608695652173913	-6.467391304347826	2.119565217391304	3907.6923076923076	128.0	128.0	-1.6373773380967782	5.396212386633443	3.7588350485366644	477.893923269978	597.7299955761428	-5.6183206106870225	6.061068702290076	0.38167938931297707	-0.047976011994003	0.4197901049475262	0.12443778110944527	
1.7089523299011108E12	2.684782608695652	-6.543478260869565	2.0652173913043477	3907.6923076923076	128.0	128.0	-1.6186978362438484	5.418642213182713	3.799944376938865	477.89139901297085	597.7398041176563	-5.358778625954198	6.809160305343511	0.42748091603053434	-0.05697151424287856	0.42278860569715143	0.14392803598200898	
1.7089523299206426E12	2.6739130434782608	-6.543478260869565	2.043478260869565	3884.249084249084	128.0	128.0	-1.5907146442788416	5.42931621424153	3.8386015699626888	477.893274175319	597.748891442882	-2.595419847328244	6.671755725190839	0.564885496183206	-0.041979010494752625	0.42278860569715143	0.1199400299850075	
1.7089523299401743E12	2.630434782608696	-6.5	2.043478260869565	3907.6923076923076	128.0	128.0	-1.5578993031858568	5.442298107421173	3.884398804235316	477.89262508066	597.7579787681078	-2.2900763358778624	6.488549618320611	0.6259541984732824	-0.04947526236881559	0.41829085457271364	0.12293853073463268	
1.708952329959706E12	2.608695652173913	-6.467391304347826	2.0217391304347827	3906.227106227106	128.0	128.0	-1.5575386950419778	5.445471459087308	3.88793276404533	477.8939953916068	597.745357483072	-3.2519083969465647	6.2748091603053435	0.2748091603053435	-0.04947526236881559	0.41829085457271364	0.13343328335832083	
1.7089523299792378E12	2.641304347826087	-6.478260869565217	2.032608695652174	3904.7619047619046	128.0	128.0	-1.5928782931421153	5.454847270828161	3.861968977686045	477.894572364637	597.7102342498582	-2.900763358778626	6.351145038167939	0.8091603053435115	-0.06596701649175413	0.41829085457271364	0.13343328335832083	
1.7089523299987695E12	2.684782608695652	-6.467391304347826	2.0652173913043477	3906.227106227106	128.0	128.0	-1.617111160410781	5.437754444808299	3.820643284397517	477.8915432562284	597.675255259902	-2.7938931297709924	6.519083969465648	0.8702290076335878	-0.06746626686656672	0.41379310344827586	0.1394302848575712	
1.7089523300183013E12	2.6630434782608696	-6.521739130434782	2.130434782608696	3903.296703296703	128.0	128.0	-1.656850177866242	5.404578495571434	3.7477283177051928	477.8916153778572	597.677491030394	-3.282442748091603	7.267175572519084	1.4961832061068703	-0.05247376311844078	0.424287856071964	0.11394302848575712	
1.708952330037833E12	2.641304347826087	-6.565217391304348	2.0760869565217392	3906.227106227106	128.0	128.0	-1.6768999906659117	5.3928947917097565	3.715994801043845	477.893274175319	597.6663842995625	-3.7709923664122136	6.595419847328244	0.9312977099236641	-0.05247376311844078	0.43178410794602695	0.12443778110944527	
1.7089523300573647E12	2.652173913043478	-6.565217391304348	2.130434782608696	3906.227106227106	128.0	128.0	-1.6721399631667095	5.390082048187501	3.717942085020791	477.89284144554637	597.675255259902	-2.1068702290076335	7.114503816793893	1.1603053435114503	-0.04947526236881559	0.41829085457271364	0.12593703148425786	
1.7089523300768965E12	2.630434782608696	-6.489130434782608	2.0	3882.7838827838827	128.0	128.0	-1.6719235982803822	5.387197183036468	3.7152735847560865	477.8947166078945	597.6608309341468	0.2748091603053435	6.473282442748092	0.5190839694656488	-0.06296851574212893	0.4197901049475262	0.12143928035982009	
1.7089523300964282E12	2.630434782608696	-6.413043478260869	2.0869565217391304	3879.8534798534797	128.0	128.0	-1.6736545173710011	5.392173575421999	3.7185190580509975	477.89493297278085	597.6606866908893	0.22900763358778625	6.595419847328244	0.9312977099236641	-0.05397301349325337	0.42278860569715143	0.13043478260869565	
1.70895233011596E12	2.630434782608696	-6.413043478260869	2.141304347826087	3907.6923076923076	128.0	128.0	-1.6734381524846738	5.394048737770169	3.7206105852854954	477.89615904047	597.6698461377438	-1.3893129770992365	6.442748091603053	1.1908396946564885	-0.05997001499250375	0.40929535232383807	0.1424287856071964	
1.7089523301354917E12	2.652173913043478	-6.423913043478261	2.0760869565217392	3904.7619047619046	128.0	128.0	-1.6699041926746598	5.389505075157294	3.7196008824826343	477.8958705539549	597.6757601113034	-2.3206106870229006	6.900763358778626	0.9007633587786259	-0.047976011994003	0.424287856071964	0.12893553223388304	
1.7089523301550232E12	2.641304347826087	-6.445652173913043	2.0652173913043477	3871.0622710622706	128.0	128.0	-1.6703369224473146	5.384456561142988	3.714119638695674	477.89709662164415	597.6722261514934	-2.595419847328244	6.671755725190839	1.099236641221374	-0.034482758620689655	0.4257871064467766	0.12593703148425786	
1.708952330174555E12	2.652173913043478	-6.489130434782608	2.130434782608696	3906.227106227106	128.0	128.0	-1.669182976386902	5.403496671139798	3.7343136947528954	477.89760147304554	597.6601818394878	-3.0839694656488548	7.038167938931298	1.0534351145038168	-0.03298350824587706	0.4197901049475262	0.1394302848575712	
1.7089523301940867E12	2.652173913043478	-6.521739130434782	2.0760869565217392	3906.227106227106	128.0	128.0	-1.6741593687724317	5.383302615082576	3.7091432463101444	477.89731298653044	597.660758812518	-3.0076335877862594	6.748091603053435	1.114503816793893	-0.047976011994003	0.41379310344827586	0.13193403298350825	
1.7089523302136184E12	2.641304347826087	-6.5	2.0978260869565215	3907.6923076923076	128.0	128.0	-1.6740872471436559	5.392606305194653	3.7185190580509975	477.89738510815926	597.6650139886158	-2.0	6.687022900763359	1.2213740458015268	-0.047976011994003	0.4197901049475262	0.11094452773613193	
1.7089523302331501E12	2.608695652173913	-6.489130434782608	2.0978260869565215	3881.3186813186812	128.0	128.0	-1.670841773848745	5.377316519894185	3.70647474604544	477.8980342028182	597.6555660552461	-1.66412213740458	6.793893129770992	1.114503816793893	-0.05397301349325337	0.41829085457271364	0.13043478260869565	
1.708952330252682E12	2.5760869565217392	-6.478260869565217	2.0760869565217392	3909.1575091575087	128.0	128.0	-1.6827418425967506	5.386836574892589	3.704094732295839	477.89853905421967	597.6596048664576	-2.0	6.916030534351145	1.1603053435114503	-0.05697151424287856	0.41079460269865065	0.1199400299850075	
1.7089523302722136E12	2.608695652173913	-6.456521739130435	2.0978260869565215	3907.6923076923076	128.0	128.0	-1.6851939779751275	5.390009926558724	3.704815948583597	477.89933239213616	597.661407907177	-1.83206106870229	6.427480916030534	1.0229007633587786	-0.05997001499250375	0.4197901049475262	0.13193403298350825	
1.7089523302917454E12	2.608695652173913	-6.456521739130435	2.108695652173913	3906.227106227106	128.0	128.0	-1.663990219115045	5.405876684889399	3.7418864657743534	477.89702450001533	597.6599654746014	-2.381679389312977	6.793893129770992	0.8244274809160305	-0.05697151424287856	0.4257871064467766	0.1409295352323838	
1.708952330311277E12	2.619565217391304	-6.445652173913043	2.130434782608696	3906.227106227106	128.0	128.0	-1.6459598119210974	5.403785157654901	3.7578253457338033	477.8975293514168	597.6340016882422	-3.16030534351145	6.809160305343511	0.7022900763358778	-0.05247376311844078	0.4197901049475262	0.12443778110944527	
1.7089523303308088E12	2.619565217391304	-6.478260869565217	2.108695652173913	3901.8315018315016	128.0	128.0	-1.592589806627012	5.41424279382739	3.821652987200378	477.89680813512905	597.6309004582048	-3.2061068702290076	6.793893129770992	0.9923664122137404	-0.041979010494752625	0.42278860569715143	0.12593703148425786	
1.7089523303503406E12	2.5978260869565215	-6.489130434782608	2.0978260869565215	3876.9230769230767	128.0	128.0	-1.62432332328836	5.399241495042025	3.7749181717536655	477.8986832974772	597.6269337686222	-2.7938931297709924	6.946564885496183	0.8702290076335878	-0.046476761619190406	0.42278860569715143	0.11244377811094453	
1.7089523303698723E12	2.5869565217391304	-6.5	2.108695652173913	3904.7619047619046	128.0	128.0	-1.6394688653312761	5.382004425764611	3.7425355604333355	477.9004863381966	597.6310447014624	-2.519083969465649	7.221374045801526	1.129770992366412	-0.05397301349325337	0.42278860569715143	0.11544227886056971	
1.708952330389404E12	2.5978260869565215	-6.489130434782608	2.0978260869565215	3882.7838827838827	128.0	128.0	-1.6699041926746598	5.378758952469701	3.708854759795041	477.89947663539374	597.6269337686222	-1.8931297709923662	6.99236641221374	0.732824427480916	-0.037481259370314844	0.4197901049475262	0.1394302848575712	
1.7089523304089358E12	2.630434782608696	-6.478260869565217	2.108695652173913	3907.6923076923076	128.0	128.0	-1.6851939779751275	5.380561993189096	3.6953680152139685	477.8983226893333	597.6465508516492	-2.091603053435114	6.931297709923664	0.8549618320610687	-0.046476761619190406	0.4332833583208396	0.1199400299850075	
1.7089523304284675E12	2.5978260869565215	-6.5	2.141304347826087	3906.227106227106	128.0	128.0	-1.7043062096007122	5.422176172992728	3.7178699633920154	477.90091906796926	597.6660958130474	-2.854961832061069	7.251908396946565	0.9465648854961831	-0.05997001499250375	0.43178410794602695	0.12143928035982009	
1.7089523304479993E12	2.608695652173913	-6.510869565217391	2.141304347826087	3904.7619047619046	128.0	128.0	-1.7110856427056365	5.67229398158717	3.961208338881533	477.90149604099946	597.7148500340999	-3.0076335877862594	6.900763358778626	1.0534351145038168	-0.05247376311844078	0.43178410794602695	0.1169415292353823	
1.708952330467531E12	2.608695652173913	-6.510869565217391	2.130434782608696	3906.227106227106	128.0	128.0	-1.180703184688471	5.592311095274818	4.411607910586347	477.90120755448436	597.3339757125349	-2.4580152671755724	7.099236641221374	0.48854961832061067	-0.026986506746626684	0.4287856071964018	0.13043478260869565	
1.7089523304870627E12	2.608695652173913	-6.445652173913043	2.0869565217391304	3906.227106227106	128.0	128.0	-1.693343722026792	5.351857584936331	3.6585138629095395	477.9053906089533	597.3033240203052	-1.4351145038167938	6.717557251908397	0.4427480916030534	-0.04947526236881559	0.42278860569715143	0.1199400299850075	
1.7089523305065945E12	2.630434782608696	-6.434782608695652	2.0869565217391304	3906.227106227106	128.0	128.0	-1.7420258214504507	5.310171283503925	3.5681454620534736	477.9039481763778	597.4805268622073	-1.0534351145038168	6.564885496183206	0.6259541984732824	-0.04947526236881559	0.42278860569715143	0.12593703148425786	
1.7089523305261262E12	2.5760869565217392	-6.445652173913043	2.130434782608696	3906.227106227106	128.0	128.0	-1.6820206263089927	5.398808765269371	3.7167881389603785	477.9033712033476	597.6642206506992	-1.9083969465648853	7.145038167938931	0.2900763358778626	-0.04497751124437781	0.424287856071964	0.12143928035982009	
1.708952330545658E12	2.5760869565217392	-6.456521739130435	2.1630434782608696	3881.3186813186812	128.0	128.0	-1.673726638999777	5.412583996365547	3.73885735736577	477.90387605474905	597.6787892197119	-3.6488549618320607	6.671755725190839	0.3969465648854962	-0.046476761619190406	0.41529235382308843	0.12293853073463268	
1.7089523305651897E12	2.5760869565217392	-6.467391304347826	2.0978260869565215	3907.6923076923076	128.0	128.0	-1.6580041239266545	5.418497969925162	3.7604938459985076	477.9036596898627	597.6816019632342	-3.5877862595419847	7.297709923664121	0.8702290076335878	-0.05997001499250375	0.4197901049475262	0.1169415292353823	
1.7089523305847214E12	2.630434782608696	-6.456521739130435	2.1630434782608696	3906.227106227106	128.0	128.0	-1.6560568399497082	5.404794860457762	3.748738020508054	477.9049578791807	597.6862898691046	-1.7709923664122136	7.251908396946565	0.9618320610687022	-0.04947526236881559	0.4047976011994003	0.12593703148425786	
1.7089523306042532E12	2.608695652173913	-6.467391304347826	2.1630434782608696	3903.296703296703	128.0	128.0	-1.6373052164680024	5.427368930264584	3.790063713796582	477.90567909546843	597.6924202075506	-2.427480916030534	6.6106870229007635	0.48854961832061067	-0.038980509745127435	0.4287856071964018	0.12293853073463268	
1.708952330623785E12	2.619565217391304	-6.489130434782608	2.152173913043478	3906.227106227106	128.0	128.0	-1.6266312154091855	5.434653214770939	3.8080219993617535	477.9069772847864	597.7023008706929	-3.7709923664122136	5.984732824427481	0.21374045801526717	-0.06146926536731634	0.41529235382308843	0.13043478260869565	
1.7089523306433167E12	2.652173913043478	-6.543478260869565	2.1739130434782608	3907.6923076923076	128.0	128.0	-1.6125674977979063	5.43602352571768	3.823456027919773	477.90748213618787	597.7108112228884	-4.33587786259542	6.244274809160305	0.21374045801526717	-0.05247376311844078	0.4197901049475262	0.13493253373313344	
1.7089523306628484E12	2.6630434782608696	-6.532608695652174	2.141304347826087	3906.227106227106	128.0	128.0	-1.577444264584096	5.445615702344859	3.868171437760763	477.9066887982713	597.7362701578463	-2.8854961832061066	6.687022900763359	-0.16793893129770993	-0.06296851574212893	0.42728635682158916	0.12443778110944527	
1.70895233068238E12	2.5978260869565215	-6.5	2.108695652173913	3906.227106227106	128.0	128.0	-1.542970126029268	5.45520787897204	3.9122377529427714	477.9066887982713	597.7435544423527	-0.916030534351145	6.534351145038167	-0.3053435114503817	-0.05397301349325337	0.4287856071964018	0.13343328335832083	
1.7089523307019116E12	2.608695652173913	-6.456521739130435	2.141304347826087	3881.3186813186812	128.0	128.0	-1.5266706379259394	5.47987347601336	3.9532028380874205	477.90798698758925	597.7486029563669	-1.1450381679389312	6.213740458015267	0.04580152671755725	-0.05247376311844078	0.424287856071964	0.12443778110944527	
1.7089523307214434E12	2.5869565217391304	-6.445652173913043	2.1630434782608696	3907.6923076923076	128.0	128.0	-1.540950720423546	5.511318506159605	3.970367785736059	477.90914093364967	597.7168694397055	-2.4580152671755724	6.076335877862595	-0.183206106870229	-0.05697151424287856	0.41829085457271364	0.12293853073463268	
1.708952330740975E12	2.619565217391304	-6.456521739130435	2.1847826086956523	3906.227106227106	128.0	128.0	-1.5872528060976037	5.506991208433057	3.9197384023354536	477.90769850107415	597.69422324827	-3.114503816793893	6.1679389312977095	-0.3511450381679389	-0.05397301349325337	0.4257871064467766	0.12593703148425786	
1.7089523307605068E12	2.6630434782608696	-6.478260869565217	2.1739130434782608	3906.227106227106	128.0	128.0	-1.6237463502581537	5.482541976278064	3.8587956260199103	477.9100785148238	597.678428611568	-3.0381679389312977	6.6106870229007635	-0.32061068702290074	-0.05397301349325337	0.4077961019490255	0.13343328335832083	
1.7089523307800386E12	2.641304347826087	-6.510869565217391	2.130434782608696	3879.8534798534797	128.0	128.0	-1.6428585818837385	5.467396434235148	3.8245378523514098	477.9092130552785	597.667538245623	-3.3587786259541983	6.549618320610687	-0.16793893129770993	-0.047976011994003	0.4197901049475262	0.13193403298350825	
1.7089523307995703E12	2.6956521739130435	-6.521739130434782	2.1739130434782608	3907.6923076923076	128.0	128.0	-1.6448058658606848	5.453332716623869	3.808526850763184	477.91130458251297	597.6594606232001	-2.8244274809160306	6.183206106870228	-0.3053435114503817	-0.04047976011994003	0.416791604197901	0.12143928035982009	
1.708952330819102E12	2.641304347826087	-6.5	2.2282608695652173	3904.7619047619046	128.0	128.0	-1.6401179599902582	5.466026123288408	3.8259081632981498	477.9117373122856	597.6558545417613	-3.0839694656488548	7.068702290076335	-0.4427480916030534	-0.047976011994003	0.416791604197901	0.12143928035982009	
1.7089523308386338E12	2.652173913043478	-6.467391304347826	2.0652173913043477	3907.6923076923076	128.0	128.0	-1.636728243437796	5.484272895368683	3.847544651930887	477.9133239881187	597.6563593931627	-1.5114503816793892	6.809160305343511	-0.12213740458015267	-0.05697151424287856	0.41829085457271364	0.12293853073463268	
1.7089523308581655E12	2.652173913043478	-6.423913043478261	2.1739130434782608	3881.3186813186812	128.0	128.0	-1.629227594045114	5.485282598171544	3.8560550041264303	477.9140452044064	597.6422956755514	-0.8244274809160305	6.229007633587786	0.32061068702290074	-0.04947526236881559	0.41529235382308843	0.11544227886056971	
1.7089523308776973E12	2.684782608695652	-6.423913043478261	2.152173913043478	3907.6923076923076	128.0	128.0	-1.6365840001802445	5.491412936617486	3.854828936437242	477.9164973397848	597.6593163799425	-3.099236641221374	6.106870229007633	0.2900763358778626	-0.04947526236881559	0.41079460269865065	0.12593703148425786	
1.708952330897229E12	2.6630434782608696	-6.445652173913043	2.130434782608696	3906.227106227106	128.0	128.0	-1.6311027563932845	5.4992020725252715	3.868099316131987	477.91693006955745	597.6407811213471	-4.396946564885496	6.900763358778626	0.5343511450381679	-0.06296851574212893	0.41379310344827586	0.12143928035982009	
1.7089523309167607E12	2.6739130434782608	-6.510869565217391	2.217391304347826	3904.7619047619046	128.0	128.0	-1.6376658246118814	5.500356018585684	3.862690193973803	477.9183003805042	597.6557102985037	-3.7709923664122136	7.0534351145038165	0.6259541984732824	-0.047976011994003	0.4197901049475262	0.13493253373313344	
1.7089523309362925E12	2.684782608695652	-6.467391304347826	2.1739130434782608	3906.227106227106	128.0	128.0	-1.6324730673400245	5.483335314194598	3.8508622468545735	477.9203197861099	597.6512387575196	-3.8625954198473282	7.450381679389313	0.4427480916030534	-0.04947526236881559	0.4257871064467766	0.12593703148425786	
1.7089523309558242E12	2.6739130434782608	-6.489130434782608	2.108695652173913	3903.296703296703	128.0	128.0	-1.6281457696134771	5.475329813400485	3.847184043787008	477.9201034212236	597.6492914735427	-3.0381679389312977	6.641221374045801	0.2900763358778626	-0.05247376311844078	0.43178410794602695	0.12443778110944527	
1.708952330975356E12	2.684782608695652	-6.467391304347826	2.152173913043478	3906.227106227106	128.0	128.0	-1.626486972151634	5.47165161033292	3.845164638181286	477.92024766448117	597.6570806094504	-1.297709923664122	6.931297709923664	0.4580152671755725	-0.04497751124437781	0.43478260869565216	0.13193403298350825	
1.7089523309948877E12	2.630434782608696	-6.456521739130435	2.1847826086956523	3906.227106227106	128.0	128.0	-1.623962715144481	5.479801354384584	3.855838639240103	477.92060827262503	597.6426562836953	-1.9083969465648853	7.572519083969465	0.6106870229007634	-0.047976011994003	0.4197901049475262	0.12893553223388304	
1.7089523310144194E12	2.684782608695652	-6.445652173913043	2.1630434782608696	3882.7838827838827	128.0	128.0	-1.6132887140856642	5.5046833163122315	3.8913946022265677	477.9214016105416	597.6490751086563	-3.541984732824427	6.916030534351145	0.15267175572519084	-0.05697151424287856	0.4287856071964018	0.13043478260869565	
1.7089523310339512E12	2.6739130434782608	-6.456521739130435	2.1739130434782608	3907.6923076923076	128.0	128.0	-1.5975661990125418	5.512400330591242	3.9148341315787	477.92262767823075	597.6554218119886	-3.801526717557252	7.007633587786259	0.7938931297709924	-0.05397301349325337	0.41829085457271364	0.1409295352323838	
1.708952331053483E12	2.641304347826087	-6.467391304347826	2.152173913043478	3898.9010989010985	128.0	128.0	-1.5537883703456368	5.518530669037184	3.9647422986915473	477.92363738103364	597.6456853921039	-2.9770992366412212	6.7328244274809155	0.366412213740458	-0.06146926536731634	0.41829085457271364	0.12593703148425786	
1.7089523310730146E12	2.641304347826087	-6.467391304347826	2.1956521739130435	3904.7619047619046	128.0	128.0	-1.5732612101151002	5.491052328473607	3.9177911183585072	477.92277192148833	597.6393386887717	-2.198473282442748	6.458015267175572	0.4427480916030534	-0.04497751124437781	0.416791604197901	0.12443778110944527	
1.7089523310925464E12	2.6739130434782608	-6.478260869565217	2.217391304347826	3907.6923076923076	128.0	128.0	-1.5939601175737523	5.478647408324171	3.8846872907504193	477.9239979891775	597.6409974862335	-3.114503816793893	6.3969465648854955	0.32061068702290074	-0.04497751124437781	0.424287856071964	0.12893553223388304	
1.7089523311120781E12	2.6630434782608696	-6.467391304347826	2.130434782608696	3904.7619047619046	128.0	128.0	-1.6165341873805747	5.4675406774927	3.851006490112125	477.926089516412	597.6512387575196	-3.847328244274809	6.152671755725191	0.42748091603053434	-0.04047976011994003	0.41379310344827586	0.1424287856071964	
1.7089523311316099E12	2.6956521739130435	-6.434782608695652	2.108695652173913	3906.227106227106	128.0	128.0	-1.6215105797661042	5.482469854649288	3.860959274883184	477.92587315152565	597.645973878619	-3.0229007633587783	6.030534351145038	-0.183206106870229	-0.05547226386806597	0.416791604197901	0.12143928035982009	
1.7089523311511416E12	2.6739130434782608	-6.467391304347826	2.1739130434782608	3906.227106227106	128.0	128.0	-1.6436519198002721	5.497182666919549	3.8535307471192777	477.92738770573	597.6631388262676	-2.4122137404580153	5.83206106870229	-0.22900763358778625	-0.04497751124437781	0.43178410794602695	0.1169415292353823	
1.7089523311706733E12	2.6739130434782608	-6.467391304347826	2.217391304347826	3881.3186813186812	128.0	128.0	-1.6129281059417853	5.737852542144363	4.124924436202578	477.9234210161473	597.7095851551992	-3.83206106870229	6.213740458015267	-0.47328244274809156	-0.041979010494752625	0.42278860569715143	0.13043478260869565	
1.708952331190205E12	2.6739130434782608	-6.478260869565217	2.1630434782608696	3907.6923076923076	128.0	128.0	-1.204142714040603	5.759561152405876	4.555418438365273	477.92688285432854	597.3276290092026	-4.030534351145038	5.740458015267175	-0.3511450381679389	-0.04947526236881559	0.41829085457271364	0.12593703148425786	
1.7089523312097366E12	2.6956521739130435	-6.478260869565217	2.130434782608696	3906.227106227106	128.0	128.0	-1.6484119472994743	5.408833671669206	3.7604217243697318	477.9290465031918	597.3693153106351	-3.0839694656488548	5.740458015267175	-0.0916030534351145	-0.041979010494752625	0.42278860569715143	0.12293853073463268	
1.7089523312292683E12	2.75	-6.391304347826087	2.0869565217391304	3904.7619047619046	128.0	128.0	-1.6472580012390616	5.452250892192232	3.8049928909531703	477.92630588129833	597.6261404307056	-2.5343511450381677	5.755725190839694	0.12213740458015267	-0.047976011994003	0.40929535232383807	0.1169415292353823	
1.7089523312488E12	2.641304347826087	-6.413043478260869	2.152173913043478	3879.8534798534797	128.0	128.0	-1.6020377399966408	5.4748249619990546	3.872787222002414	477.92536830012426	597.6785007331969	-1.2519083969465647	6.351145038167939	0.061068702290076333	-0.041979010494752625	0.43628185907046474	0.13793103448275862	
1.7089523312683318E12	2.684782608695652	-6.4021739130434785	2.1956521739130435	3906.227106227106	128.0	128.0	-1.5998019695045913	5.487446247034818	3.8876442775302267	477.9258010298969	597.6850638014155	-4.916030534351145	5.465648854961832	-0.5190839694656488	-0.041979010494752625	0.4332833583208396	0.12293853073463268	
1.7089523312878635E12	2.7065217391304346	-6.467391304347826	2.0978260869565215	3906.227106227106	128.0	128.0	-1.595114063634165	5.503313005365492	3.908198941731327	477.92717134084364	597.6932856670959	-7.022900763358779	6.305343511450381	0.33587786259541985	-0.06146926536731634	0.41829085457271364	0.13343328335832083	
1.7089523313073953E12	2.7391304347826084	-6.456521739130435	2.119565217391304	3906.227106227106	128.0	128.0	-1.5714581693957055	5.490475355443401	3.9190171860476957	477.925440421753	597.6999208569433	-4.045801526717557	6.961832061068702	0.6106870229007634	-0.05247376311844078	0.4197901049475262	0.12443778110944527	
1.708952331326927E12	2.7065217391304346	-6.456521739130435	2.130434782608696	3882.7838827838827	128.0	128.0	-1.5772278996977687	5.510669411500622	3.9334415118028536	477.92507981360916	597.7132633582668	-1.8473282442748091	5.9541984732824424	0.8702290076335878	-0.037481259370314844	0.4197901049475262	0.1169415292353823	
1.7089523313464587E12	2.6956521739130435	-6.434782608695652	2.119565217391304	3907.6923076923076	128.0	128.0	-1.56092841159444	5.5101645600991915	3.949236148504752	477.92450284057895	597.7132633582668	-4.259541984732825	5.526717557251908	0.030534351145038167	-0.06746626686656672	0.43178410794602695	0.12143928035982009	
1.7089523313659905E12	2.717391304347826	-6.5	2.141304347826087	3906.227106227106	128.0	128.0	-1.5326567331143301	5.536777441117459	4.0041207080031285	477.92414223243503	597.7221343186062	-5.770992366412213	5.923664122137405	0.10687022900763359	-0.04047976011994003	0.4197901049475262	0.12893553223388304	
1.7089523313855222E12	2.717391304347826	-6.510869565217391	2.0978260869565215	3904.7619047619046	128.0	128.0	-1.5079911360730096	5.5420423200180915	4.034051183945082	477.92363738103364	597.7284089003097	-5.267175572519084	6.854961832061068	-0.07633587786259542	-0.05397301349325337	0.42278860569715143	0.12593703148425786	
1.708952331405054E12	2.717391304347826	-6.478260869565217	2.0978260869565215	3906.227106227106	128.0	128.0	-1.4898164856215104	5.5564666457732494	4.066650160151739	477.92248343497323	597.7289858733399	-3.3435114503816794	6.3969465648854955	0.21374045801526717	-0.06146926536731634	0.41529235382308843	0.12293853073463268	
1.7089523314245857E12	2.7391304347826084	-6.445652173913043	2.0978260869565215	3904.7619047619046	128.0	128.0	-1.4728679028591996	5.574569174595974	4.101701271736774	477.9216179754279	597.733168927809	-3.2519083969465647	6.748091603053435	0.38167938931297707	-0.05997001499250375	0.416791604197901	0.13493253373313344	
1.7089523314441174E12	2.717391304347826	-6.478260869565217	2.130434782608696	3906.227106227106	128.0	128.0	-1.4965237970976588	5.607384515688958	4.110860718591299	477.9216179754279	597.7160039801603	-4.3206106870229	6.442748091603053	0.2900763358778626	-0.05547226386806597	0.416791604197901	0.1169415292353823	
1.7089523314636492E12	2.7282608695652173	-6.467391304347826	2.108695652173913	3906.227106227106	128.0	128.0	-1.5408064771659944	5.5903638112978715	4.049557334131877	477.9208246375114	597.6907614100887	-4.1679389312977095	6.7328244274809155	0.10687022900763359	-0.06596701649175413	0.43628185907046474	0.13343328335832083	
1.708952331483181E12	2.75	-6.456521739130435	2.0978260869565215	3882.7838827838827	128.0	128.0	-1.5786703322732847	5.577165553231902	3.9984952209586173	477.9221949484581	597.6666006644489	-3.5267175572519083	7.129770992366412	0.13740458015267176	-0.047976011994003	0.4197901049475262	0.12893553223388304	
1.7089523315027126E12	2.717391304347826	-6.489130434782608	2.0652173913043477	3906.227106227106	128.0	128.0	-1.588190387271689	5.541970198389316	3.9537798111176268	477.91678582629993	597.6790055845983	-4.534351145038168	7.022900763358779	0.2748091603053435	-0.037481259370314844	0.40929535232383807	0.13493253373313344	
1.7089523315222444E12	2.75	-6.510869565217391	2.141304347826087	3907.6923076923076	128.0	128.0	-1.5972055908686629	5.547595685433827	3.9503900945651647	477.91822825887544	597.6706394756603	-4.580152671755725	6.259541984732824	-0.2595419847328244	-0.046476761619190406	0.4287856071964018	0.12593703148425786	
1.7089523315417761E12	2.6956521739130435	-6.467391304347826	2.108695652173913	3906.227106227106	128.0	128.0	-1.5948976987478376	5.540383522556248	3.945485823808411	477.9172906777014	597.6842704634989	-4.152671755725191	7.633587786259541	0.4427480916030534	-0.04497751124437781	0.42728635682158916	0.12143928035982009	
1.7089523315613079E12	2.7065217391304346	-6.445652173913043	2.043478260869565	3907.6923076923076	128.0	128.0	-1.5910031307939447	5.558846659522851	3.967843528728906	477.9183003805042	597.6831165174385	-2.381679389312977	7.404580152671755	0.7633587786259541	-0.06146926536731634	0.4287856071964018	0.13793103448275862	
1.7089523315808396E12	2.7282608695652173	-6.423913043478261	2.1739130434782608	3906.227106227106	128.0	128.0	-1.5941764824600797	5.564111538423484	3.969935055963404	477.9178676507316	597.6791498278559	-2.4427480916030535	6.778625954198473	1.114503816793893	-0.06146926536731634	0.41529235382308843	0.12293853073463268	
1.7089523316003713E12	2.7282608695652173	-6.456521739130435	2.0978260869565215	3906.227106227106	128.0	128.0	-1.5873249277263795	5.578607985807418	3.991283058081038	477.9159203667546	597.6803037739163	-5.6183206106870225	6.519083969465648	0.5190839694656488	-0.05397301349325337	0.43628185907046474	0.10794602698650674	
1.708952331619903E12	2.7065217391304346	-6.510869565217391	2.0760869565217392	3906.227106227106	128.0	128.0	-1.587108562840052	5.585531662169894	3.9984230993298415	477.9146221774366	597.6696297728574	-5.893129770992366	6.7328244274809155	0.6106870229007634	-0.05697151424287856	0.4077961019490255	0.10494752623688156	
1.7089523316394348E12	2.7391304347826084	-6.510869565217391	2.152173913043478	3881.3186813186812	128.0	128.0	-1.5939601175737523	5.5776704046333325	3.98371028705958	477.9153433937244	597.6878765449377	-3.8931297709923665	6.381679389312977	0.5954198473282443	-0.046476761619190406	0.4287856071964018	0.1199400299850075	
1.7089523316589666E12	2.75	-6.489130434782608	2.119565217391304	3907.6923076923076	128.0	128.0	-1.5941764824600797	5.577309796489454	3.9831333140293737	477.9162809748985	597.6822510578932	-4.015267175572519	6.916030534351145	0.6717557251908397	-0.05397301349325337	0.4287856071964018	0.12593703148425786	
1.7089523316784983E12	2.717391304347826	-6.489130434782608	2.0652173913043477	3906.227106227106	128.0	128.0	-1.598215293671524	5.6034178261062895	4.005202532434765	477.9146221774366	597.6751110166445	-4.061068702290076	6.65648854961832	0.41221374045801523	-0.038980509745127435	0.41829085457271364	0.12293853073463268	
1.70895233169803E12	2.717391304347826	-6.456521739130435	2.0869565217391304	3906.227106227106	128.0	128.0	-1.5875412926127068	5.621448233300237	4.0339069406875305	477.9143336909215	597.6770583006213	-3.0229007633587783	6.366412213740458	0.6870229007633587	-0.06146926536731634	0.4287856071964018	0.13043478260869565	
1.7089523317175618E12	2.717391304347826	-6.445652173913043	2.130434782608696	3906.227106227106	128.0	128.0	-1.5710975612518265	5.623684003792286	4.05258644254046	477.9140452044064	597.6796546792573	-3.312977099236641	6.412213740458015	0.8702290076335878	-0.041979010494752625	0.43628185907046474	0.13793103448275862	
1.7089523317370933E12	2.7282608695652173	-6.445652173913043	2.108695652173913	3904.7619047619046	128.0	128.0	-1.5501101672780715	5.6304634368972115	4.08035326961914	477.914189447664	597.6574412175943	-3.9236641221374042	6.778625954198473	0.5801526717557252	-0.047976011994003	0.41379310344827586	0.12443778110944527	
1.708952331756625E12	2.75	-6.489130434782608	2.108695652173913	3906.227106227106	128.0	128.0	-1.5744872778042887	5.584161351223153	4.009674073418864	477.9139009611489	597.668475826797	-3.9541984732824424	6.763358778625954	0.7175572519083969	-0.047976011994003	0.43178410794602695	0.1169415292353823	
1.7089523317761567E12	2.75	-6.489130434782608	2.0760869565217392	3906.227106227106	128.0	128.0	-1.6093220245029958	5.575074025997404	3.9657520014944083	477.9129633799748	597.666240056305	-4.061068702290076	6.748091603053435	0.732824427480916	-0.06596701649175413	0.41529235382308843	0.13793103448275862	
1.7089523317956885E12	2.7391304347826084	-6.456521739130435	2.0869565217391304	3882.7838827838827	128.0	128.0	-1.6172554036683326	5.564904876340018	3.9476494726716846	477.91281913671725	597.6743898003566	-3.9847328244274807	6.65648854961832	0.8396946564885496	-0.05997001499250375	0.424287856071964	0.12143928035982009	
1.7089523318152202E12	2.75	-6.467391304347826	2.108695652173913	3907.6923076923076	128.0	128.0	-1.618192984842418	5.546946590774845	3.9287536059324273	477.9118815555432	597.6768419357351	-3.9236641221374042	6.793893129770992	0.5954198473282443	-0.05997001499250375	0.424287856071964	0.12893553223388304	
1.708952331834752E12	2.7717391304347827	-6.456521739130435	2.0869565217391304	3907.6923076923076	128.0	128.0	-1.6527392450260217	5.635511950911516	3.9827727058854947	477.91166519065683	597.6912662614902	-4.2748091603053435	6.641221374045801	0.916030534351145	-0.06146926536731634	0.41829085457271364	0.13343328335832083	
1.7089523318542837E12	2.760869565217391	-6.478260869565217	2.0760869565217392	3904.7619047619046	128.0	128.0	-1.538859193189048	5.797136520998063	4.258277327809015	477.91043912296766	597.7248749404997	-4.290076335877862	6.519083969465648	0.5954198473282443	-0.04497751124437781	0.41379310344827586	0.12143928035982009	
1.7089523318738154E12	2.75	-6.445652173913043	2.0869565217391304	3907.6923076923076	128.0	128.0	-1.232702879035816	5.667894562231846	4.43519168319603	477.910006393195	597.3227968600746	-3.7709923664122136	7.099236641221374	0.6259541984732824	-0.05697151424287856	0.42278860569715143	0.12593703148425786	
1.7089523318933472E12	2.75	-6.456521739130435	2.0760869565217392	3906.227106227106	128.0	128.0	-1.646104055178649	5.4073191174649144	3.7612150622862655	477.91224216368704	597.4110737336962	-3.7251908396946565	7.251908396946565	0.8396946564885496	-0.05547226386806597	0.41379310344827586	0.12443778110944527	
1.708952331912879E12	2.7717391304347827	-6.423913043478261	1.9565217391304348	3906.227106227106	128.0	128.0	-1.6308863915069571	5.518458547408408	3.887572155901451	477.9097900283087	597.6531860414966	-3.0381679389312977	6.641221374045801	1.129770992366412	-0.05247376311844078	0.40929535232383807	0.12893553223388304	
1.7089523319324106E12	2.6956521739130435	-6.434782608695652	2.141304347826087	3907.6923076923076	128.0	128.0	-1.6208614851071221	5.543917482366262	3.92305599725914	477.90784274433173	597.6787170980832	-2.3664122137404577	6.99236641221374	0.5038167938931297	-0.06146926536731634	0.4407796101949025	0.12593703148425786	
1.7089523319519424E12	2.7065217391304346	-6.456521739130435	2.0978260869565215	3882.7838827838827	128.0	128.0	-1.6145869034036284	5.549470847781999	3.93488394437837	477.90503000080946	597.7010026813749	-5.480916030534351	6.946564885496183	0.8549618320610687	-0.05397301349325337	0.4257871064467766	0.12293853073463268	
1.708952331971474E12	2.75	-6.489130434782608	2.0760869565217392	3907.6923076923076	128.0	128.0	-1.6004510641635734	5.526680413088848	3.9262293489252746	477.90769850107415	597.6976129648225	-6.961832061068702	7.1603053435114505	1.66412213740458	-0.05247376311844078	0.42728635682158916	0.13193403298350825	
1.7089523319910059E12	2.7282608695652173	-6.456521739130435	2.032608695652174	3907.6923076923076	128.0	128.0	-1.598864388330506	5.540022914412369	3.9411585260818636	477.9055348522109	597.7137682096683	-3.847328244274809	7.893129770992366	1.7404580152671756	-0.04497751124437781	0.4197901049475262	0.1394302848575712	
1.7089523320105376E12	2.6956521739130435	-6.434782608695652	2.010869565217391	3906.227106227106	128.0	128.0	-1.5862431032947426	5.546441739373415	3.960198636078672	477.906472433385	597.7123257770927	-2.0	7.022900763358779	1.297709923664122	-0.046476761619190406	0.4257871064467766	0.12293853073463268	
1.7089523320300693E12	2.6956521739130435	-6.445652173913043	2.119565217391304	3907.6923076923076	128.0	128.0	-1.5783818457581815	5.550119942440981	3.971738096682799	477.9042366628929	597.7183118722811	-3.5877862595419847	6.412213740458015	1.2671755725190839	-0.05547226386806597	0.416791604197901	0.1424287856071964	
1.708952332049601E12	2.717391304347826	-6.489130434782608	2.108695652173913	3907.6923076923076	128.0	128.0	-1.5625872090562833	5.5821419456174315	4.019554736561148	477.9043809061505	597.7495405375411	-7.419847328244274	6.427480916030534	1.2366412213740459	-0.046476761619190406	0.4287856071964018	0.13343328335832083	
1.7089523320691328E12	2.7282608695652173	-6.5	2.0	3906.227106227106	128.0	128.0	-1.5369119092121017	5.615678502998175	4.078766593786073	477.90358756823395	597.7538678352676	-6.717557251908397	6.5038167938931295	1.8473282442748091	-0.05247376311844078	0.416791604197901	0.12143928035982009	
1.7089523320886646E12	2.7065217391304346	-6.5	2.043478260869565	3906.227106227106	128.0	128.0	-1.5094335686485254	5.6188518546643085	4.109418286015783	477.901640284257	597.7739176480673	-2.6564885496183206	6.885496183206107	1.5572519083969465	-0.047976011994003	0.40929535232383807	0.12143928035982009	
1.7089523321081963E12	2.75	-6.478260869565217	2.0543478260869565	3882.7838827838827	128.0	128.0	-1.5007789731954306	5.639262275607858	4.1384833024124275	477.9025057438023	597.757906646479	-1.984732824427481	6.442748091603053	1.5114503816793892	-0.041979010494752625	0.42278860569715143	0.13043478260869565	
1.708952332127728E12	2.717391304347826	-6.445652173913043	2.0217391304347827	3906.227106227106	128.0	128.0	-1.540229504135788	5.6407768298121495	4.100547325676361	477.9010633112268	597.7243700890982	-3.7862595419847325	6.33587786259542	1.7862595419847327	-0.05247376311844078	0.416791604197901	0.13193403298350825	
1.7089523321472598E12	2.717391304347826	-6.456521739130435	2.0	3906.227106227106	128.0	128.0	-1.5806897378790068	5.631977991101502	4.051288253222496	477.9012796761131	597.6918432345204	-4.641221374045801	7.068702290076335	1.9236641221374045	-0.04047976011994003	0.424287856071964	0.12443778110944527	
1.7089523321667915E12	2.7391304347826084	-6.478260869565217	2.0760869565217392	3906.227106227106	128.0	128.0	-1.5975661990125418	5.608322096863043	4.010755897850501	477.89976512190884	597.6826837876658	-4.549618320610687	7.038167938931298	1.9236641221374045	-0.046476761619190406	0.42278860569715143	0.13043478260869565	
1.7089523321863232E12	2.7282608695652173	-6.478260869565217	2.032608695652174	3878.388278388278	128.0	128.0	-1.6105480921921842	5.580555269784364	3.97000717759218	477.8986832974772	597.6736685840689	-4.961832061068702	6.931297709923664	2.015267175572519	-0.04047976011994003	0.4197901049475262	0.13493253373313344	
1.708952332205855E12	2.7391304347826084	-6.532608695652174	2.108695652173913	3906.227106227106	128.0	128.0	-1.6191305660165032	5.576732823459247	3.9576022574427436	477.89817844607575	597.6817462064918	-5.022900763358779	6.641221374045801	1.8625954198473282	-0.04497751124437781	0.43478260869565216	0.11094452773613193	
1.7089523322253867E12	2.6739130434782608	-6.521739130434782	2.0217391304347827	3906.227106227106	128.0	128.0	-1.6170390387820053	5.584377716109481	3.9673386773274757	477.8986832974772	597.6808807469465	-4.961832061068702	7.541984732824427	2.1221374045801524	-0.05247376311844078	0.41379310344827586	0.11394302848575712	
1.7089523322449185E12	2.684782608695652	-6.467391304347826	1.9565217391304348	3907.6923076923076	128.0	128.0	-1.6052832132915513	5.573703715050664	3.9684205017591125	477.8983226893333	597.6809528685752	-3.0839694656488548	7.404580152671755	1.9389312977099236	-0.05547226386806597	0.41379310344827586	0.13193403298350825	
1.70895233226445E12	2.6739130434782608	-6.4021739130434785	2.043478260869565	3882.7838827838827	128.0	128.0	-1.6194911741603821	5.592743825047473	3.9732526508870905	477.8992602705074	597.6737407056977	-2.8396946564885495	7.49618320610687	2.2900763358778624	-0.05397301349325337	0.41829085457271364	0.13793103448275862	
1.7089523322839817E12	2.652173913043478	-6.445652173913043	2.010869565217391	3907.6923076923076	128.0	128.0	-1.602326226511744	5.580338904898037	3.9780126783862926	477.89861117584843	597.6706394756603	-3.7404580152671754	6.916030534351145	1.5572519083969465	-0.0239880059970015	0.4002998500749625	0.13343328335832083	
1.7089523323035134E12	2.6739130434782608	-6.456521739130435	1.9891304347826086	3906.227106227106	128.0	128.0	-1.5987201450729545	5.577598283004557	3.978878137931602	477.8978178379319	597.6656630832748	-4.778625954198473	6.900763358778626	1.7099236641221374	-0.05697151424287856	0.41829085457271364	0.1199400299850075	
1.7089523323230452E12	2.6739130434782608	-6.489130434782608	2.0217391304347827	3906.227106227106	128.0	128.0	-1.6114856733662695	5.566419430544309	3.9549337571780394	477.89817844607575	597.6686200700545	-4.488549618320611	7.801526717557252	1.1908396946564885	-0.06296851574212893	0.41379310344827586	0.12443778110944527	
1.708952332342577E12	2.6739130434782608	-6.510869565217391	2.032608695652174	3906.227106227106	128.0	128.0	-1.6089614163591166	5.565121241226344	3.956159824867228	477.8983948109621	597.664292772328	-5.358778625954198	7.572519083969465	1.5267175572519083	-0.046476761619190406	0.4257871064467766	0.13343328335832083	
1.7089523323621086E12	2.6630434782608696	-6.5	1.9891304347826086	3906.227106227106	128.0	128.0	-1.6037686590872597	5.582069823988656	3.9783011649013957	477.898106324447	597.6756879896747	-4.702290076335878	7.49618320610687	1.7099236641221374	-0.05547226386806597	0.416791604197901	0.12893553223388304	
1.7089523323816404E12	2.652173913043478	-6.489130434782608	1.967391304347826	3906.227106227106	128.0	128.0	-1.5953304285204923	5.5931044331913515	3.9977740046708594	477.89767359467436	597.6613357855482	-3.0229007633587783	7.49618320610687	1.282442748091603	-0.046476761619190406	0.41829085457271364	0.1409295352323838	
1.708952332401172E12	2.6630434782608696	-6.456521739130435	1.9891304347826086	3907.6923076923076	128.0	128.0	-1.546792572354385	5.619933679095945	4.07314110674156	477.8986832974772	597.6521042170649	-2.916030534351145	7.419847328244274	1.5725190839694656	-0.06596701649175413	0.4257871064467766	0.12293853073463268	
1.7089523324207039E12	2.652173913043478	-6.456521739130435	2.0	3882.7838827838827	128.0	128.0	-1.5599908304203547	5.579184958837624	4.019194128417269	477.89853905421967	597.6533302847541	-3.847328244274809	7.511450381679389	1.3282442748091603	-0.047976011994003	0.40929535232383807	0.12143928035982009	
1.7089523324402356E12	2.6630434782608696	-6.489130434782608	1.9782608695652173	3906.227106227106	128.0	128.0	-1.5880461440141374	5.563678808650829	3.9756326646366915	477.897457229788	597.6443872027859	-4.717557251908397	7.206106870229007	1.4045801526717556	-0.034482758620689655	0.41079460269865065	0.13343328335832083	
1.7089523324597673E12	2.652173913043478	-6.467391304347826	1.9891304347826086	3906.227106227106	128.0	128.0	-1.61747176855466	5.548821753123016	3.9313499845683557	477.89767359467436	597.6487866221412	-4.33587786259542	7.587786259541985	1.3587786259541985	-0.029985007496251874	0.41379310344827586	0.1424287856071964	
1.708952332479299E12	2.641304347826087	-6.467391304347826	1.9891304347826086	3906.227106227106	128.0	128.0	-1.630237296847975	5.5488938747517915	3.9186565779038167	477.89731298653044	597.6409974862335	-3.312977099236641	7.557251908396946	1.465648854961832	-0.05397301349325337	0.41829085457271364	0.13043478260869565	
1.7089523324988308E12	2.630434782608696	-6.467391304347826	1.9891304347826086	3907.6923076923076	128.0	128.0	-1.636439756922693	5.557981199977541	3.9215414430548483	477.8978178379319	597.6434496216118	-3.541984732824427	7.312977099236641	1.3282442748091603	-0.05997001499250375	0.416791604197901	0.12443778110944527	
1.7089523325183625E12	2.630434782608696	-6.467391304347826	2.010869565217391	3906.227106227106	128.0	128.0	-1.6941370599433256	5.722057905442465	4.02792084549914	477.8972408649017	597.6838377337263	-4.290076335877862	7.251908396946565	1.083969465648855	-0.06596701649175413	0.4287856071964018	0.13343328335832083	
1.7089523325378943E12	2.630434782608696	-6.489130434782608	2.0	3904.7619047619046	128.0	128.0	-1.2360925955882784	5.850795012807252	4.6147024172189735	477.8950050944096	597.4763438077383	-4.519083969465648	7.236641221374046	0.5801526717557252	-0.05397301349325337	0.4287856071964018	0.14392803598200898	
1.708952332557426E12	2.630434782608696	-6.5	1.9891304347826086	3906.227106227106	128.0	128.0	-1.2960977907297362	5.472733434764557	4.17663564403482	477.8986832974772	597.2977706548895	-3.541984732824427	7.022900763358779	0.6259541984732824	-0.05397301349325337	0.4047976011994003	0.13043478260869565	
1.7089523325769578E12	2.6956521739130435	-6.5	1.934782608695652	3882.7838827838827	128.0	128.0	-1.6739430038861043	5.472877678022108	3.798934674136004	477.89767359467436	597.5436332873861	-3.541984732824427	7.0534351145038165	0.7786259541984732	-0.06146926536731634	0.42278860569715143	0.12593703148425786	
1.7089523325964895E12	2.652173913043478	-6.456521739130435	1.934782608695652	3906.227106227106	128.0	128.0	-1.6471858796102858	5.565121241226345	3.917935361616059	477.89846693259085	597.6590278934274	-2.3206106870229006	6.061068702290076	0.21374045801526717	-0.04947526236881559	0.41829085457271364	0.13043478260869565	
1.7089523326160212E12	2.5869565217391304	-6.456521739130435	2.032608695652174	3906.227106227106	128.0	128.0	-1.635357932491056	5.574497052967198	3.9391391204761415	477.89651964861395	597.6818904497493	-2.778625954198473	7.221374045801526	0.4427480916030534	-0.046476761619190406	0.42278860569715143	0.13343328335832083	
1.708952332635553E12	2.6739130434782608	-6.510869565217391	1.9891304347826086	3906.227106227106	128.0	128.0	-1.6120626463964758	5.561154551643677	3.9490919052472004	477.89579843232616	597.6952329510729	-5.557251908396946	6.870229007633587	0.48854961832061067	-0.05997001499250375	0.43178410794602695	0.13193403298350825	
1.7089523326550847E12	2.6956521739130435	-6.467391304347826	1.9782608695652173	3906.227106227106	128.0	128.0	-1.6160293359791442	5.564400024938587	3.9483706889594425	477.8954378241823	597.7028778437231	-4.137404580152672	6.946564885496183	1.0534351145038168	-0.046476761619190406	0.41829085457271364	0.12593703148425786	
1.7089523326746165E12	2.652173913043478	-6.445652173913043	1.9239130434782608	3904.7619047619046	128.0	128.0	-1.6049226051476724	5.5792570804664	3.9743344753187273	477.8952935809247	597.7158597369028	-2.259541984732824	7.206106870229007	0.9465648854961831	-0.04947526236881559	0.41829085457271364	0.12593703148425786	
1.7089523326941482E12	2.630434782608696	-6.4021739130434785	1.934782608695652	3906.227106227106	128.0	128.0	-1.5984316585578513	5.5861086352001	3.9876769766422484	477.89550994581106	597.7298513328852	-2.610687022900763	5.755725190839694	0.6259541984732824	-0.04497751124437781	0.41379310344827586	0.1424287856071964	
1.70895233271368E12	2.652173913043478	-6.489130434782608	1.9891304347826086	3906.227106227106	128.0	128.0	-1.5703763449640686	5.588488648949701	4.018112303985633	477.8952935809247	597.7374962255354	-4.396946564885496	5.923664122137405	0.5190839694656488	-0.05397301349325337	0.41529235382308843	0.12593703148425786	
1.7089523327332117E12	2.7065217391304346	-6.532608695652174	1.967391304347826	3879.8534798534797	128.0	128.0	-1.5566011138678926	5.596710514630141	4.0401094007622484	477.8937069050917	597.750838726859	-5.709923664122138	6.076335877862595	0.07633587786259542	-0.046476761619190406	0.41829085457271364	0.12593703148425786	
1.7089523327527434E12	2.6739130434782608	-6.510869565217391	1.934782608695652	3907.6923076923076	128.0	128.0	-1.5287621651604373	5.628660396177816	4.099898231017379	477.8921923508874	597.7580508897365	-4.183206106870228	6.717557251908397	0.0	-0.047976011994003	0.4197901049475262	0.1424287856071964	
1.7089523327722751E12	2.6956521739130435	-6.478260869565217	1.9565217391304348	3906.227106227106	128.0	128.0	-1.5076305279291307	5.633348302048242	4.125717774119112	477.89284144554637	597.7687970124241	-2.4122137404580153	5.938931297709924	0.15267175572519084	-0.04947526236881559	0.41829085457271364	0.13343328335832083	
1.7089523327918066E12	2.6739130434782608	-6.467391304347826	1.9021739130434783	3906.227106227106	128.0	128.0	-1.5052505141795296	5.641137437956028	4.135886923776499	477.8924808374025	597.7471605237914	-2.595419847328244	6.259541984732824	0.13740458015267176	-0.041979010494752625	0.41829085457271364	0.12593703148425786	
1.7089523328113384E12	2.6630434782608696	-6.434782608695652	1.9239130434782608	3907.6923076923076	128.0	128.0	-1.5406622339084428	5.634141639964777	4.093479406056334	477.8914711345996	597.6883813963392	-2.916030534351145	6.412213740458015	0.366412213740458	-0.037481259370314844	0.41379310344827586	0.12443778110944527	
1.70895233283087E12	2.6956521739130435	-6.423913043478261	1.967391304347826	3906.227106227106	128.0	128.0	-1.5710254396230507	5.616976692316138	4.045951252693087	477.8917596211147	597.661407907177	-2.9618320610687023	6.3969465648854955	0.2748091603053435	-0.05247376311844078	0.41379310344827586	0.12143928035982009	
1.7089523328504019E12	2.6956521739130435	-6.478260869565217	1.934782608695652	3904.7619047619046	128.0	128.0	-1.6046341186325692	5.573415228535561	3.9687811099029915	477.893274175319	597.6722261514934	-3.9541984732824424	6.229007633587786	0.2595419847328244	-0.05247376311844078	0.4197901049475262	0.12893553223388304	
1.7089523328699336E12	2.717391304347826	-6.5	1.9130434782608696	3907.6923076923076	128.0	128.0	-1.606797767495843	5.571179458043511	3.964381690547668	477.89320205369023	597.6620570018359	-3.2519083969465647	6.717557251908397	0.183206106870229	-0.06596701649175413	0.4257871064467766	0.13043478260869565	
1.7089523328894653E12	2.7065217391304346	-6.510869565217391	2.0543478260869565	3882.7838827838827	128.0	128.0	-1.61062021382096	5.5591351460379546	3.948514932216994	477.8929135671751	597.6677546105093	-3.2061068702290076	6.442748091603053	0.2595419847328244	-0.05397301349325337	0.42278860569715143	0.12593703148425786	
1.708952332908997E12	2.6739130434782608	-6.478260869565217	1.8695652173913042	3907.6923076923076	128.0	128.0	-1.6069420107533945	5.566635795430636	3.9596937846772415	477.89349054020533	597.6620570018359	-3.66412213740458	6.854961832061068	0.183206106870229	-0.05397301349325337	0.41829085457271364	0.1409295352323838	
1.7089523329285288E12	2.684782608695652	-6.467391304347826	1.9565217391304348	3904.7619047619046	128.0	128.0	-1.6069420107533945	5.581853459102328	3.9749114483489336	477.8934184185766	597.6599654746014	-2.5343511450381677	6.137404580152672	0.4580152671755725	-0.06146926536731634	0.41829085457271364	0.14392803598200898	
1.7089523329480605E12	2.6956521739130435	-6.445652173913043	2.0	3906.227106227106	128.0	128.0	-1.5946092122327344	5.5893541084950105	3.994744896262276	477.89406751323554	597.6626339748661	-2.2900763358778624	6.549618320610687	0.3511450381679389	-0.047976011994003	0.4197901049475262	0.12893553223388304	
1.7089523329675923E12	2.717391304347826	-6.467391304347826	1.9239130434782608	3906.227106227106	128.0	128.0	-1.598503780186627	5.592599581789921	3.9940958016032937	477.89406751323554	597.6482817707398	-3.7251908396946565	6.045801526717557	0.0	-0.05247376311844078	0.424287856071964	0.13493253373313344	
1.708952332987124E12	2.6739130434782608	-6.478260869565217	1.9456521739130435	3906.227106227106	128.0	128.0	-1.5930225363996668	5.581709215844777	3.9886866794451095	477.89406751323554	597.6560709066476	-3.312977099236641	6.717557251908397	0.2595419847328244	-0.046476761619190406	0.41529235382308843	0.12593703148425786	
1.7089523330066558E12	2.7282608695652173	-6.445652173913043	1.9891304347826086	3904.7619047619046	128.0	128.0	-1.6001625776484703	5.604283285651599	4.0041207080031285	477.8927693239176	597.6381126210824	-2.5801526717557253	6.2748091603053435	0.549618320610687	-0.05697151424287856	0.41529235382308843	0.12593703148425786	
1.7089523330261875E12	2.684782608695652	-6.456521739130435	1.9782608695652173	3906.227106227106	128.0	128.0	-1.592589806627012	5.586685608230306	3.9940958016032937	477.8926972022888	597.6455411488463	-2.9770992366412212	6.687022900763359	0.9465648854961831	-0.04947526236881559	0.41829085457271364	0.11544227886056971	
1.7089523330457192E12	2.684782608695652	-6.5	1.967391304347826	3882.7838827838827	128.0	128.0	-1.5923734417406847	5.607240272431406	4.014866830690722	477.8937069050917	597.6422235539227	-3.099236641221374	6.824427480916031	0.8244274809160305	-0.05247376311844078	0.424287856071964	0.12143928035982009	
1.708952333065251E12	2.7065217391304346	-6.478260869565217	1.9456521739130435	3907.6923076923076	128.0	128.0	-1.5899934279910837	5.628155544776385	4.038162116785302	477.8929135671751	597.6408532429759	-2.5801526717557253	6.625954198473282	1.099236641221374	-0.05247376311844078	0.41379310344827586	0.12443778110944527	
1.7089523330847827E12	2.684782608695652	-6.478260869565217	1.9782608695652173	3906.227106227106	128.0	128.0	-1.5656884390936423	5.629597977351901	4.063909538258259	477.8919038643723	597.6555660552461	-2.091603053435114	6.885496183206107	1.0534351145038168	-0.05247376311844078	0.4197901049475262	0.12443778110944527	
1.7089523331043145E12	2.6956521739130435	-6.478260869565217	1.9782608695652173	3904.7619047619046	128.0	128.0	-1.5248675972065446	5.647628384545849	4.122760787339304	477.8917596211147	597.6358047289616	-2.717557251908397	6.854961832061068	0.6564885496183206	-0.05547226386806597	0.42728635682158916	0.12893553223388304	
1.7089523331238462E12	2.7065217391304346	-6.489130434782608	1.9891304347826086	3906.227106227106	128.0	128.0	-1.563019938828938	5.593753527850334	4.030733589021396	477.8915432562284	597.6441708378995	-2.229007633587786	6.641221374045801	1.083969465648855	-0.05547226386806597	0.41379310344827586	0.13193403298350825	
1.708952333143378E12	2.684782608695652	-6.467391304347826	1.9782608695652173	3904.7619047619046	128.0	128.0	-1.5887673603018952	5.587190459631737	3.9984230993298415	477.8908941615694	597.6429447702104	-1.8931297709923662	7.190839694656488	1.1450381679389312	-0.06146926536731634	0.41529235382308843	0.14392803598200898	
1.7089523331629097E12	2.6956521739130435	-6.467391304347826	1.9456521739130435	3906.227106227106	128.0	128.0	-1.6113414301087179	5.575362512512507	3.964021082403789	477.8908941615694	597.64179082415	-2.33587786259542	6.885496183206107	1.297709923664122	-0.041979010494752625	0.4077961019490255	0.12593703148425786	
1.7089523331824414E12	2.684782608695652	-6.467391304347826	1.9891304347826086	3906.227106227106	128.0	128.0	-1.6210057283646737	5.570963093157184	3.94995736479251	477.8914711345996	597.6397714185442	-2.16793893129771	6.671755725190839	0.7633587786259541	-0.04947526236881559	0.41529235382308843	0.1199400299850075	
1.7089523332019731E12	2.7065217391304346	-6.5	2.0217391304347827	3881.3186813186812	128.0	128.0	-1.6342761080594193	5.588632892207253	3.954356784147833	477.8927693239176	597.6429447702104	-2.4885496183206106	6.534351145038167	0.732824427480916	-0.041979010494752625	0.4077961019490255	0.12593703148425786	
1.708952333221505E12	2.6739130434782608	-6.478260869565217	1.9891304347826086	3907.6923076923076	128.0	128.0	-1.6176160118122116	5.875821217992451	4.258205206180239	477.8936347834629	597.6997766136857	-2.6717557251908395	6.625954198473282	0.564885496183206	-0.05697151424287856	0.41529235382308843	0.13343328335832083	
1.7089523332410366E12	2.6956521739130435	-6.478260869565217	2.032608695652174	3906.227106227106	128.0	128.0	-1.183083198438072	5.865796311592616	4.682713113154544	477.8918317427435	597.3871293529427	-1.5725190839694656	6.351145038167939	0.47328244274809156	-0.05697151424287856	0.41079460269865065	0.13793103448275862	
1.7089523332605684E12	2.684782608695652	-6.445652173913043	1.967391304347826	3906.227106227106	128.0	128.0	-1.6520901503670395	5.451818162419578	3.7997280120525376	477.89651964861395	597.3152240890532	-1.2671755725190839	7.114503816793893	0.4427480916030534	-0.05247376311844078	0.42728635682158916	0.11394302848575712	
1.7089523332801E12	2.75	-6.413043478260869	1.9565217391304348	3907.6923076923076	128.0	128.0	-1.6765393825220327	5.514059128053084	3.837519745531052	477.89522145929595	597.5338247458726	-1.2213740458015268	6.442748091603053	1.0229007633587786	-0.05397301349325337	0.41079460269865065	0.12593703148425786	
1.7089523332996316E12	2.641304347826087	-6.445652173913043	2.032608695652174	3906.227106227106	128.0	128.0	-1.6235299853718264	5.574208566452095	3.950678581080268	477.89594267558374	597.6885977612254	-1.66412213740458	6.625954198473282	0.8854961832061068	-0.047976011994003	0.43178410794602695	0.12443778110944527	
1.7089523333191633E12	2.7065217391304346	-6.5	2.010869565217391	3906.227106227106	128.0	128.0	-1.612351132911579	5.572621890619027	3.960270757707448	477.8957263106974	597.6912662614902	-3.145038167938931	6.977099236641221	0.4580152671755725	-0.041979010494752625	0.42278860569715143	0.13043478260869565	
1.708952333338695E12	2.652173913043478	-6.521739130434782	2.0	3907.6923076923076	128.0	128.0	-1.6086729298440134	5.577093431603126	3.9684205017591125	477.89435599975064	597.6976850864512	-3.7709923664122136	6.702290076335878	0.21374045801526717	-0.037481259370314844	0.4197901049475262	0.1394302848575712	
1.7089523333582268E12	2.7065217391304346	-6.489130434782608	2.043478260869565	3881.3186813186812	128.0	128.0	-1.5868921979537247	5.569015809180238	3.9821236112265126	477.8952935809247	597.7001372218296	-1.4351145038167938	7.145038167938931	1.2213740458015268	-0.05247376311844078	0.416791604197901	0.13193403298350825	
1.7089523333777585E12	2.6739130434782608	-6.434782608695652	1.967391304347826	3907.6923076923076	128.0	128.0	-1.5797521567049215	5.5718285527024936	3.9920763959975716	477.8951493376672	597.7086475740251	-1.0229007633587786	6.900763358778626	1.1603053435114503	-0.05997001499250375	0.42728635682158916	0.12143928035982009	
1.7089523333972903E12	2.6630434782608696	-6.467391304347826	2.0217391304347827	3906.227106227106	128.0	128.0	-1.5544374650046189	5.5708188498996325	4.016381384895014	477.8960147972125	597.7280482921658	-1.1908396946564885	5.9541984732824424	0.9007633587786259	-0.047976011994003	0.424287856071964	0.13193403298350825	
1.708952333416822E12	2.6956521739130435	-6.5	2.119565217391304	3904.7619047619046	128.0	128.0	-1.5387149499314965	5.580266783269261	4.041551833337764	477.8947887295233	597.7433380774663	-1.114503816793893	5.66412213740458	0.3053435114503817	-0.04947526236881559	0.42278860569715143	0.12593703148425786	
1.7089523334363538E12	2.684782608695652	-6.521739130434782	1.9891304347826086	3906.227106227106	128.0	128.0	-1.5038080816040138	5.576877066716798	4.073068985112784	477.89565418906864	597.7475211319353	-3.66412213740458	6.427480916030534	0.32061068702290074	-0.05547226386806597	0.43178410794602695	0.12893553223388304	
1.7089523334558855E12	2.6739130434782608	-6.521739130434782	2.032608695652174	3906.227106227106	128.0	128.0	-1.4810176469108638	5.602480244932204	4.12146259802134	477.89522145929595	597.7513435782604	-1.7862595419847327	6.366412213740458	0.5038167938931297	-0.04497751124437781	0.4197901049475262	0.13193403298350825	
1.7089523334754172E12	2.6956521739130435	-6.467391304347826	2.0217391304347827	3906.227106227106	128.0	128.0	-1.4668818076708088	5.599162650008518	4.132280842337709	477.89875541910595	597.7486750779957	0.6259541984732824	6.183206106870228	0.47328244274809156	-0.041979010494752625	0.4287856071964018	0.1199400299850075	
1.708952333494949E12	2.684782608695652	-6.456521739130435	2.032608695652174	3906.227106227106	128.0	128.0	-1.4738776056620606	5.623900368678615	4.150022763016554	477.8975293514168	597.7233603862954	-0.13740458015267176	6.1679389312977095	0.22900763358778625	-0.06146926536731634	0.4257871064467766	0.1409295352323838	
1.7089523335144807E12	2.6956521739130435	-6.445652173913043	2.0978260869565215	3881.3186813186812	128.0	128.0	-1.5065487034974938	5.610918475498972	4.104369772001478	477.89962087865126	597.7042481546698	-1.5114503816793892	6.33587786259542	0.6412213740458015	-0.05547226386806597	0.4197901049475262	0.1394302848575712	
1.7089523335340125E12	2.7065217391304346	-6.456521739130435	2.0760869565217392	3906.227106227106	128.0	128.0	-1.5536441270880852	5.584954689139687	4.031310562051602	477.89882754073477	597.6666727860776	-1.8778625954198473	6.793893129770992	0.6564885496183206	-0.05547226386806597	0.41379310344827586	0.12893553223388304	
1.7089523335535442E12	2.6956521739130435	-6.467391304347826	2.0652173913043477	3906.227106227106	128.0	128.0	-1.5638132767454718	5.5543751185387515	3.99056184179328	477.89976512190884	597.6640042858129	-1.7862595419847327	6.702290076335878	0.9770992366412213	-0.04947526236881559	0.41079460269865065	0.13043478260869565	
1.708952333573076E12	2.7282608695652173	-6.5	2.130434782608696	3904.7619047619046	128.0	128.0	-1.5729006019712213	5.538868968351957	3.9659683663807357	477.8992602705074	597.6644370155856	-1.5877862595419847	6.122137404580153	0.33587786259541985	-0.05547226386806597	0.43178410794602695	0.11394302848575712	
1.7089523335926077E12	2.684782608695652	-6.467391304347826	2.032608695652174	3907.6923076923076	128.0	128.0	-1.570592709850396	5.556610889030801	3.9860181791804052	477.899404513765	597.653979379413	-2.183206106870229	7.0534351145038165	0.366412213740458	-0.047976011994003	0.42728635682158916	0.12443778110944527	
1.7089523336121394E12	2.684782608695652	-6.434782608695652	2.043478260869565	3907.6923076923076	128.0	128.0	-1.5547980731484978	5.546946590774845	3.9921485176263474	477.90063058145415	597.6620570018359	-1.099236641221374	7.1603053435114505	0.6259541984732824	-0.037481259370314844	0.424287856071964	0.1424287856071964	
1.7089523336316711E12	2.6956521739130435	-6.423913043478261	2.119565217391304	3906.227106227106	128.0	128.0	-1.551624721482363	5.545432036570554	3.9938073150881905	477.9020008924009	597.6615521504345	-0.16793893129770993	6.885496183206107	1.0381679389312977	-0.06596701649175413	0.41829085457271364	0.12593703148425786	
1.708952333651203E12	2.717391304347826	-6.445652173913043	2.0543478260869565	3906.227106227106	128.0	128.0	-1.5444125586047839	5.541104738844006	3.9966921802392226	477.90091906796926	597.6611194206619	-1.5877862595419847	6.564885496183206	0.32061068702290074	-0.04497751124437781	0.4452773613193403	0.13493253373313344	
1.7089523336707346E12	2.717391304347826	-6.478260869565217	2.0652173913043477	3882.7838827838827	128.0	128.0	-1.5279688272439036	5.531224075701722	4.003255248457819	477.9011354328556	597.6661679346762	-2.9770992366412212	6.793893129770992	0.564885496183206	-0.05397301349325337	0.4407796101949025	0.13043478260869565	
1.7089523336902664E12	2.7065217391304346	-6.5	2.1739130434782608	3907.6923076923076	128.0	128.0	-1.5325124898567786	5.5457926447144335	4.013280154857655	477.90178452751456	597.6582345555108	-2.1221374045801524	7.007633587786259	0.41221374045801523	-0.046476761619190406	0.42278860569715143	0.13043478260869565	
1.708952333709798E12	2.7065217391304346	-6.489130434782608	2.0978260869565215	3909.1575091575087	128.0	128.0	-1.5214778806540825	5.5160064120300305	3.9945285313759484	477.90243362217353	597.6629224613813	-2.198473282442748	6.8396946564885495	0.6259541984732824	-0.06296851574212893	0.4197901049475262	0.12443778110944527	
1.7089523337293298E12	2.717391304347826	-6.5	2.0978260869565215	3904.7619047619046	128.0	128.0	-1.5177275559577414	5.504827559569783	3.987100003612042	477.9040924196354	597.657224852708	-1.6946564885496183	7.236641221374046	0.5343511450381679	-0.06296851574212893	0.416791604197901	0.11394302848575712	
1.7089523337488616E12	2.7282608695652173	-6.456521739130435	2.130434782608696	3907.6923076923076	128.0	128.0	-1.5079911360730096	5.504683316312232	3.9966921802392226	477.9025778654311	597.6644370155856	-0.916030534351145	6.7328244274809155	0.6717557251908397	-0.047976011994003	0.43928035982008995	0.13193403298350825	
1.7089523337683933E12	2.684782608695652	-6.467391304347826	2.141304347826087	3904.7619047619046	128.0	128.0	-1.4994807838774662	5.520117344870251	4.020636560992785	477.90416454126415	597.6580903122533	-1.4961832061068703	7.480916030534351	1.0076335877862594	-0.05997001499250375	0.424287856071964	0.12443778110944527	
1.708952333787925E12	2.7065217391304346	-6.434782608695652	2.141304347826087	3904.7619047619046	128.0	128.0	-1.481955228084949	5.508722127523677	4.026766899438727	477.9070494064152	597.6676103672518	-1.984732824427481	6.824427480916031	0.7480916030534351	-0.04947526236881559	0.4257871064467766	0.1199400299850075	
1.7089523338074568E12	2.717391304347826	-6.434782608695652	2.108695652173913	3906.227106227106	128.0	128.0	-1.4356531424108914	5.5437732391087104	4.108120096697819	477.90430878452173	597.6549890822159	-2.030534351145038	6.824427480916031	0.5343511450381679	-0.047976011994003	0.43178410794602695	0.12143928035982009	
1.7089523338269883E12	2.717391304347826	-6.434782608695652	2.119565217391304	3882.7838827838827	128.0	128.0	-1.455125982180355	5.506558478660402	4.051432496480047	477.90654455501374	597.6557102985037	-1.9541984732824427	6.946564885496183	0.8091603053435115	-0.05697151424287856	0.41529235382308843	0.13793103448275862	
1.70895233384652E12	2.6956521739130435	-6.445652173913043	2.1739130434782608	3907.6923076923076	128.0	128.0	-1.4729400244879753	5.473598894309866	4.000658869821891	477.9067609199001	597.6555660552461	-2.2748091603053435	6.946564885496183	0.8702290076335878	-0.05997001499250375	0.42728635682158916	0.12443778110944527	
1.7089523338660518E12	2.717391304347826	-6.434782608695652	2.119565217391304	3906.227106227106	128.0	128.0	-1.5015001894831885	5.470641907530059	3.9691417180468704	477.9090688120209	597.6505175412318	-2.1374045801526718	7.3893129770992365	0.732824427480916	-0.0704647676161919	0.41379310344827586	0.12143928035982009	
1.7089523338855835E12	2.7065217391304346	-6.434782608695652	2.0652173913043477	3904.7619047619046	128.0	128.0	-1.5153475422081402	5.465521271886978	3.9501737296788373	477.9086360822483	597.6542678659282	-2.183206106870229	7.129770992366412	0.549618320610687	-0.041979010494752625	0.4257871064467766	0.12593703148425786	
1.7089523339051152E12	2.7391304347826084	-6.423913043478261	2.119565217391304	3907.6923076923076	128.0	128.0	-1.517871799215293	5.46891098843944	3.9510391892241468	477.9096457850511	597.6622012450936	-2.4122137404580153	7.435114503816793	0.48854961832061067	-0.029985007496251874	0.4197901049475262	0.11394302848575712	
1.708952333924647E12	2.717391304347826	-6.445652173913043	2.119565217391304	3906.227106227106	128.0	128.0	-1.5234972862598046	5.756604165626069	4.2331068793662645	477.9079148659605	597.7314380087183	-2.748091603053435	7.251908396946565	0.48854961832061067	-0.04947526236881559	0.41829085457271364	0.11244377811094453	
1.7089523339441787E12	2.7065217391304346	-6.423913043478261	2.119565217391304	3906.227106227106	128.0	128.0	-1.1495466410573294	5.7666290720259035	4.6170824309685745	477.9075542578166	597.5036779050444	-3.3893129770992365	6.946564885496183	0.7938931297709924	-0.047976011994003	0.424287856071964	0.13193403298350825	
1.7089523339637104E12	2.717391304347826	-6.434782608695652	2.108695652173913	3906.227106227106	128.0	128.0	-1.2991990207670954	5.480017719270911	4.180818698503816	477.91166519065683	597.3287108336343	-4.0	7.114503816793893	0.8702290076335878	-0.047976011994003	0.4197901049475262	0.11394302848575712	
1.7089523339832422E12	2.7391304347826084	-6.423913043478261	2.0543478260869565	3882.7838827838827	128.0	128.0	-1.5790309404171636	5.418642213182713	3.83961127276555	477.9096457850511	597.5351229351905	-4.458015267175572	6.854961832061068	0.8396946564885496	-0.04497751124437781	0.416791604197901	0.12893553223388304	
1.708952334002774E12	2.684782608695652	-6.413043478260869	2.119565217391304	3879.8534798534797	128.0	128.0	-1.5495331942478652	5.492278396162796	3.942745201914931	477.9097179066799	597.6606145692605	-3.7557251908396947	6.763358778625954	1.0534351145038168	-0.05547226386806597	0.42728635682158916	0.12893553223388304	
1.7089523340223057E12	2.684782608695652	-6.434782608695652	2.1630434782608696	3907.6923076923076	128.0	128.0	-1.534748260348828	5.515934290401256	3.9811860300524273	477.90827547410436	597.7017238976626	-4.763358778625954	7.358778625954198	0.7480916030534351	-0.046476761619190406	0.42278860569715143	0.12593703148425786	
1.7089523340418374E12	2.717391304347826	-6.521739130434782	2.0869565217391304	3903.296703296703	128.0	128.0	-1.5258773000094057	5.522425236991077	3.996547936981671	477.9083475957332	597.7050414925864	-7.694656488549618	5.969465648854961	0.8549618320610687	-0.04497751124437781	0.43928035982008995	0.1169415292353823	
1.7089523340613691E12	2.760869565217391	-6.510869565217391	2.119565217391304	3907.6923076923076	128.0	128.0	-1.517222704556311	5.532305900133361	4.015083195577049	477.90719364967276	597.7149942773574	-5.480916030534351	6.717557251908397	1.0534351145038168	-0.05247376311844078	0.4197901049475262	0.12143928035982009	
1.708952334080901E12	2.75	-6.423913043478261	2.108695652173913	3907.6923076923076	128.0	128.0	-1.5198912048210151	5.549182361266896	4.02929115644588	477.9075542578166	597.7086475740251	-1.6946564885496183	7.32824427480916	1.1755725190839694	-0.04947526236881559	0.4257871064467766	0.10794602698650674	
1.7089523341004326E12	2.7065217391304346	-6.423913043478261	2.0869565217391304	3906.227106227106	128.0	128.0	-1.5103711498226107	5.544710820282796	4.034339670460185	477.9067609199001	597.7255240351586	-3.5114503816793894	6.259541984732824	1.129770992366412	-0.04947526236881559	0.41829085457271364	0.12593703148425786	
1.7089523341199644E12	2.7391304347826084	-6.5	2.130434782608696	3906.227106227106	128.0	128.0	-1.4875807151294609	5.559856362325712	4.072275647196251	477.9032269600901	597.7367028876189	-5.908396946564885	6.198473282442748	0.7175572519083969	-0.05697151424287856	0.4287856071964018	0.13043478260869565	
1.708952334139496E12	2.7065217391304346	-6.554347826086956	2.119565217391304	3882.7838827838827	128.0	128.0	-1.4743103354347153	5.58250255376131	4.108192218326595	477.90488575755194	597.7427611044361	-6.702290076335878	6.381679389312977	0.6870229007633587	-0.047976011994003	0.424287856071964	0.1169415292353823	
1.7089523341590278E12	2.717391304347826	-6.489130434782608	2.0869565217391304	3907.6923076923076	128.0	128.0	-1.4404131699100937	5.602985096333635	4.162571926423541	477.9033712033476	597.7523532810633	-4.305343511450381	6.748091603053435	0.6412213740458015	-0.05697151424287856	0.4287856071964018	0.12593703148425786	
1.7089523341785596E12	2.7391304347826084	-6.456521739130435	2.0978260869565215	3906.227106227106	128.0	128.0	-1.4279361281318819	5.611134840385299	4.183198712253417	477.90517424406704	597.7515599431467	-2.7938931297709924	6.763358778625954	0.9465648854961831	-0.05247376311844078	0.42728635682158916	0.12443778110944527	
1.7089523341980913E12	2.7065217391304346	-6.445652173913043	2.0543478260869565	3903.296703296703	128.0	128.0	-1.4512314142264622	5.636016802312946	4.1847853880864845	477.90301059520374	597.7232882646666	-3.480916030534351	6.473282442748092	0.9465648854961831	-0.047976011994003	0.43928035982008995	0.12143928035982009	
1.708952334217623E12	2.7065217391304346	-6.445652173913043	2.0760869565217392	3907.6923076923076	128.0	128.0	-1.482315836228828	5.625054314739027	4.142738478510199	477.9028663519462	597.7182397506523	-4.106870229007633	6.702290076335878	0.9770992366412213	-0.04497751124437781	0.43478260869565216	0.13493253373313344	
1.7089523342371548E12	2.7282608695652173	-6.445652173913043	2.0869565217391304	3906.227106227106	128.0	128.0	-1.537849490386187	5.6167603274298115	4.078910837043624	477.9032269600901	597.6856407744457	-3.877862595419847	6.717557251908397	0.8549618320610687	-0.05247376311844078	0.40929535232383807	0.12443778110944527	
1.7089523342566865E12	2.6956521739130435	-6.478260869565217	2.043478260869565	3907.6923076923076	128.0	128.0	-1.5480186400435736	5.585820148684997	4.037801508641423	477.9013517977419	597.672658881266	-4.641221374045801	6.900763358778626	1.0229007633587786	-0.05547226386806597	0.416791604197901	0.13193403298350825	
1.7089523342762183E12	2.7391304347826084	-6.489130434782608	2.0978260869565215	3906.227106227106	128.0	128.0	-1.5648951011771086	5.580194661640485	4.015299560463377	477.90387605474905	597.6782843683105	-4.763358778625954	6.458015267175572	0.6870229007633587	-0.06146926536731634	0.42278860569715143	0.12593703148425786	
1.70895233429575E12	2.6956521739130435	-6.489130434782608	2.0869565217391304	3882.7838827838827	128.0	128.0	-1.5691502772748802	5.579617688610278	4.010467411335398	477.90358756823395	597.6787892197119	-4.595419847328244	6.305343511450381	1.1450381679389312	-0.037481259370314844	0.424287856071964	0.12443778110944527	
1.7089523343152817E12	2.6630434782608696	-6.456521739130435	1.9782608695652173	3879.8534798534797	128.0	128.0	-1.5695108854187592	5.574352809709645	4.004841924290886	477.9049578791807	597.6764092059624	-3.49618320610687	7.206106870229007	0.9007633587786259	-0.05247376311844078	0.43178410794602695	0.12443778110944527	
1.7089523343348135E12	2.6956521739130435	-6.434782608695652	2.108695652173913	3907.6923076923076	128.0	128.0	-1.5791030620459394	5.591878365502163	4.012775303456224	477.9005584598254	597.6748225301293	-2.8091603053435112	7.145038167938931	1.114503816793893	-0.04497751124437781	0.43178410794602695	0.12443778110944527	
1.708952334354345E12	2.7282608695652173	-6.467391304347826	2.0760869565217392	3901.8315018315016	128.0	128.0	-1.557466573413202	5.585459540541118	4.027992967127916	477.9019287707721	597.6674661239941	-3.9847328244274807	6.65648854961832	1.2519083969465647	-0.05547226386806597	0.43478260869565216	0.12443778110944527	
1.7089523343738767E12	2.717391304347826	-6.478260869565217	2.0	3906.227106227106	128.0	128.0	-1.577083656440217	5.598513555349536	4.021429898909319	477.9007027030829	597.6700625026301	-5.526717557251908	6.564885496183206	1.1450381679389312	-0.05697151424287856	0.4077961019490255	0.1199400299850075	
1.7089523343934084E12	2.717391304347826	-6.489130434782608	2.0978260869565215	3906.227106227106	128.0	128.0	-1.5656884390936423	5.5917341222446115	4.0260456831509694	477.899404513765	597.6617685153209	-4.106870229007633	6.702290076335878	1.1450381679389312	-0.05247376311844078	0.42728635682158916	0.13493253373313344	
1.7089523344129402E12	2.7065217391304346	-6.467391304347826	2.0652173913043477	3907.6923076923076	128.0	128.0	-1.5780933592430781	5.590508054555423	4.012414695312345	477.899404513765	597.6728752461523	-3.49618320610687	6.748091603053435	1.4045801526717556	-0.05547226386806597	0.40629685157421286	0.12893553223388304	
1.708952334432472E12	2.6739130434782608	-6.5	2.0543478260869565	3906.227106227106	128.0	128.0	-1.5827812651135047	5.586469243343979	4.003687978230474	477.9004863381966	597.6668170293352	-4.290076335877862	7.251908396946565	1.3282442748091603	-0.04047976011994003	0.42728635682158916	0.12143928035982009	
1.7089523344520037E12	2.6739130434782608	-6.489130434782608	2.0217391304347827	3882.7838827838827	128.0	128.0	-1.5829255083710563	5.585026810768463	4.002101302397406	477.8995487570225	597.6611194206619	-3.5725190839694654	7.2824427480916025	1.618320610687023	-0.047976011994003	0.424287856071964	0.12893553223388304	
1.7089523344715354E12	2.6956521739130435	-6.445652173913043	2.010869565217391	3907.6923076923076	128.0	128.0	-1.5826370218559531	5.612721516218366	4.030084494362414	477.89875541910595	597.6698461377438	-2.610687022900763	7.022900763358779	1.66412213740458	-0.041979010494752625	0.4077961019490255	0.11544227886056971	
1.7089523344910671E12	2.6739130434782608	-6.445652173913043	2.043478260869565	3907.6923076923076	128.0	128.0	-1.5777327510991992	5.6339252750784485	4.05619252397925	477.89904390562106	597.6459017569902	-3.16030534351145	7.175572519083969	1.3282442748091603	-0.046476761619190406	0.41079460269865065	0.11244377811094453	
1.7089523345105989E12	2.7065217391304346	-6.478260869565217	2.0652173913043477	3903.296703296703	128.0	128.0	-1.537200395727205	5.6453926140538	4.108192218326595	477.89760147304554	597.6540515010419	-3.541984732824427	7.2824427480916025	1.3587786259541985	-0.04497751124437781	0.40929535232383807	0.1169415292353823	
1.7089523345301306E12	2.717391304347826	-6.489130434782608	2.0217391304347827	3907.6923076923076	128.0	128.0	-1.5169342180412078	5.630247072010883	4.113312853969676	477.89846693259085	597.633424715212	-4.595419847328244	7.206106870229007	1.4809160305343512	-0.05397301349325337	0.42278860569715143	0.12593703148425786	
1.7089523345496624E12	2.6739130434782608	-6.5	2.0760869565217392	3906.227106227106	128.0	128.0	-1.5489562212176589	5.610341502468765	4.061385281251106	477.8980342028182	597.6392665671428	-4.549618320610687	6.8396946564885495	1.0687022900763359	-0.04947526236881559	0.42278860569715143	0.11544227886056971	
1.708952334569194E12	2.6739130434782608	-6.467391304347826	2.0652173913043477	3906.227106227106	128.0	128.0	-1.5930946580284426	5.609476042923456	4.016381384895014	477.8989717839923	597.6466950949067	-3.4351145038167936	7.0534351145038165	1.4961832061068703	-0.046476761619190406	0.42278860569715143	0.13343328335832083	
1.7089523345887258E12	2.6956521739130435	-6.445652173913043	2.032608695652174	3904.7619047619046	128.0	128.0	-1.5939601175737523	5.602912974704859	4.008952857131106	477.8986832974772	597.6531860414966	-2.9770992366412212	7.129770992366412	1.1755725190839694	-0.05247376311844078	0.41379310344827586	0.12893553223388304	
1.7089523346082576E12	2.6739130434782608	-6.456521739130435	2.043478260869565	3879.8534798534797	128.0	128.0	-1.6061486728368608	5.594907473910746	3.9887588010738853	477.89933239213616	597.6515993656635	-3.0229007633587783	6.885496183206107	1.2213740458015268	-0.04497751124437781	0.40629685157421286	0.12893553223388304	
1.7089523346277893E12	2.684782608695652	-6.478260869565217	2.0543478260869565	3906.227106227106	128.0	128.0	-1.64300282514129	5.681597671699247	4.038594846557957	477.89767359467436	597.6619127585784	-3.801526717557252	6.5038167938931295	1.099236641221374	-0.05247376311844078	0.416791604197901	0.12893553223388304	
1.708952334647321E12	2.6630434782608696	-6.489130434782608	2.043478260869565	3907.6923076923076	128.0	128.0	-1.3691570006796123	5.819422104289783	4.450265103610171	477.897457229788	597.6511666358908	-4.137404580152672	6.687022900763359	1.114503816793893	-0.047976011994003	0.41379310344827586	0.12143928035982009	
1.7089523346668528E12	2.6739130434782608	-6.5	2.032608695652174	3903.296703296703	128.0	128.0	-1.1280543956821438	5.796271061452754	4.66821666577061	477.8968802567578	597.2736820308784	-3.5725190839694654	6.717557251908397	0.9007633587786259	-0.04047976011994003	0.4197901049475262	0.13193403298350825	
1.7089523346863845E12	2.6956521739130435	-6.489130434782608	2.010869565217391	3906.227106227106	128.0	128.0	-1.645382838890891	5.5115348710459315	3.866152032155041	477.89947663539374	597.4554285353934	-2.778625954198473	6.961832061068702	1.1603053435114503	-0.05397301349325337	0.4287856071964018	0.12593703148425786	
1.7089523347059163E12	2.7065217391304346	-6.456521739130435	1.934782608695652	3906.227106227106	128.0	128.0	-1.6342039864306435	5.620943381898806	3.986739395468163	477.8980342028182	597.6223901060093	-3.16030534351145	6.900763358778626	1.297709923664122	-0.05547226386806597	0.424287856071964	0.12443778110944527	
1.708952334725448E12	2.630434782608696	-6.445652173913043	2.108695652173913	3904.7619047619046	128.0	128.0	-1.6137935654870947	5.6376755997747905	4.023882034287696	477.89767359467436	597.6660236914187	-1.5877862595419847	6.549618320610687	0.8244274809160305	-0.06746626686656672	0.40929535232383807	0.13493253373313344	
1.7089523347449797E12	2.6956521739130435	-6.478260869565217	2.043478260869565	3906.227106227106	128.0	128.0	-1.6100432407907537	5.652172047158724	4.042128806367971	477.89904390562106	597.6769140573638	-3.312977099236641	7.312977099236641	0.6870229007633587	-0.05247376311844078	0.424287856071964	0.12893553223388304	
1.7089523347645115E12	2.6956521739130435	-6.489130434782608	2.032608695652174	3882.7838827838827	128.0	128.0	-1.5964122529521292	5.652821141817706	4.056408888865577	477.89853905421967	597.6823953011508	-5.984732824427481	7.221374045801526	0.8854961832061068	-0.047976011994003	0.41379310344827586	0.13193403298350825	
1.7089523347840432E12	2.6739130434782608	-6.434782608695652	1.9891304347826086	3906.227106227106	128.0	128.0	-1.58920009007455	5.653470236476688	4.064270146402138	477.89853905421967	597.6936462752398	-3.66412213740458	6.916030534351145	1.4961832061068703	-0.041979010494752625	0.42278860569715143	0.12293853073463268	
1.708952334803575E12	2.641304347826087	-6.423913043478261	1.967391304347826	3906.227106227106	128.0	128.0	-1.5907867659076174	5.662124831929782	4.071338066022165	477.89918814887864	597.6995602487993	-2.16793893129771	7.465648854961832	1.4351145038167938	-0.05997001499250375	0.416791604197901	0.12893553223388304	
1.7089523348231067E12	2.652173913043478	-6.467391304347826	2.108695652173913	3901.8315018315016	128.0	128.0	-1.5640296416317991	5.67092367064043	4.106894029008631	477.89680813512905	597.722206440235	-2.900763358778626	6.534351145038167	1.1450381679389312	-0.05697151424287856	0.4077961019490255	0.12293853073463268	
1.7089523348426384E12	2.7065217391304346	-6.554347826086956	2.0543478260869565	3906.227106227106	128.0	128.0	-1.5458549911802997	5.680299482381282	4.134444491200982	477.89767359467436	597.7218458320912	-5.740458015267175	6.625954198473282	0.8091603053435115	-0.05997001499250375	0.41379310344827586	0.13493253373313344	
1.7089523348621702E12	2.7065217391304346	-6.543478260869565	1.967391304347826	3906.227106227106	128.0	128.0	-1.5235694078885804	5.701214754726262	4.177645346837681	477.8968802567578	597.728625265196	-6.091603053435114	6.7328244274809155	0.7786259541984732	-0.04947526236881559	0.41079460269865065	0.1199400299850075	
1.7089523348817017E12	2.6956521739130435	-6.5	2.043478260869565	3906.227106227106	128.0	128.0	-1.4883740530459946	5.723283973131654	4.234909920085659	477.8960147972125	597.7367028876189	-2.8091603053435112	7.0534351145038165	0.564885496183206	-0.041979010494752625	0.41829085457271364	0.12593703148425786	
1.7089523349012334E12	2.6739130434782608	-6.456521739130435	2.0	3906.227106227106	128.0	128.0	-1.4875807151294609	5.732515541614955	4.244934826485494	477.8952935809247	597.7307889140593	-1.6793893129770991	6.961832061068702	0.6870229007633587	-0.05247376311844078	0.40929535232383807	0.13193403298350825	
1.7089523349207651E12	2.6739130434782608	-6.456521739130435	2.0217391304347827	3882.7838827838827	128.0	128.0	-1.5087844739895433	5.7281882438884075	4.2194037698988645	477.8965917702427	597.6940068833836	-3.297709923664122	7.068702290076335	0.9618320610687022	-0.06146926536731634	0.4332833583208396	0.13793103448275862	
1.7089523349402969E12	2.7065217391304346	-6.434782608695652	2.032608695652174	3909.1575091575087	128.0	128.0	-1.5480186400435736	5.707056606657101	4.1590379666135275	477.8948608511521	597.6608309341468	-3.1908396946564883	6.595419847328244	0.366412213740458	-0.04497751124437781	0.424287856071964	0.12443778110944527	
1.7089523349598286E12	2.717391304347826	-6.478260869565217	2.0217391304347827	3894.5054945054944	128.0	128.0	-1.5848727923480026	5.688665591319275	4.103792798971272	477.89507721603843	597.6497242033154	-3.633587786259542	7.022900763358779	0.916030534351145	-0.05697151424287856	0.41079460269865065	0.12593703148425786	
1.7089523349793604E12	2.717391304347826	-6.489130434782608	1.9891304347826086	3900.3663003663	128.0	128.0	-1.59194071196803	5.678424320033113	4.086483608065082	477.89666389187147	597.6338574449846	-4.427480916030534	7.312977099236641	0.7022900763358778	-0.038980509745127435	0.41529235382308843	0.1199400299850075	
1.708952334998892E12	2.6956521739130435	-6.510869565217391	2.0869565217391304	3907.6923076923076	128.0	128.0	-1.5977825638988692	5.675250968366978	4.077468404468108	477.89565418906864	597.6387617157415	-4.244274809160305	6.671755725190839	0.7022900763358778	-0.06146926536731634	0.4257871064467766	0.13043478260869565	
1.7089523350184238E12	2.6739130434782608	-6.467391304347826	1.9456521739130435	3903.296703296703	128.0	128.0	-1.5960516448082502	5.666091521512452	4.070039876704201	477.89637540535637	597.6501569330879	-2.8702290076335877	7.0534351145038165	0.7480916030534351	-0.034482758620689655	0.41829085457271364	0.13343328335832083	
1.7089523350379556E12	2.6630434782608696	-6.445652173913043	2.0217391304347827	3906.227106227106	128.0	128.0	-1.6049947267764482	5.676477036056165	4.071482309279717	477.89565418906864	597.6328477421818	-1.7251908396946565	7.038167938931298	0.4427480916030534	-0.05397301349325337	0.4077961019490255	0.12293853073463268	
1.7089523350574873E12	2.6739130434782608	-6.456521739130435	2.0978260869565215	3906.227106227106	128.0	128.0	-1.6025425913980713	5.681309185184144	4.078766593786073	477.89594267558374	597.6397714185442	-1.8625954198473282	6.961832061068702	0.9312977099236641	-0.04497751124437781	0.41379310344827586	0.12143928035982009	
1.708952335077019E12	2.6630434782608696	-6.521739130434782	1.9782608695652173	3879.8534798534797	128.0	128.0	-1.601605010223986	5.687944375031517	4.086339364807531	477.8955820674398	597.6426562836953	-4.366412213740458	6.702290076335878	0.8396946564885496	-0.041979010494752625	0.4047976011994003	0.12293853073463268	
1.7089523350965508E12	2.6739130434782608	-6.521739130434782	2.032608695652174	3906.227106227106	128.0	128.0	-1.5989365099592818	5.693137132303374	4.094200622344092	477.8969523783866	597.6461902435053	-4.045801526717557	6.549618320610687	0.5801526717557252	-0.05247376311844078	0.424287856071964	0.12443778110944527	
1.7089523351160825E12	2.6956521739130435	-6.467391304347826	2.0760869565217392	3904.7619047619046	128.0	128.0	-1.6110529435936147	5.704892957793827	4.093840014200213	477.8964475269851	597.6373914047947	-1.816793893129771	6.824427480916031	0.7480916030534351	-0.05997001499250375	0.41379310344827586	0.13193403298350825	
1.7089523351356143E12	2.684782608695652	-6.478260869565217	2.0217391304347827	3900.3663003663	128.0	128.0	-1.6059323079505334	5.6877280101451895	4.081795702194656	477.8998372435376	597.6502290547168	-2.6717557251908395	6.885496183206107	0.9618320610687022	-0.04497751124437781	0.4197901049475262	0.12443778110944527	
1.708952335155146E12	2.6739130434782608	-6.456521739130435	2.032608695652174	3906.227106227106	128.0	128.0	-1.602975321170726	5.689314685978257	4.086339364807531	477.89637540535637	597.635011391045	-1.984732824427481	6.870229007633587	0.6870229007633587	-0.05247376311844078	0.416791604197901	0.12893553223388304	
1.7089523351746777E12	2.6739130434782608	-6.423913043478261	2.032608695652174	3906.227106227106	128.0	128.0	-1.6069420107533945	5.692992889045822	4.086050878292427	477.8958705539549	597.6336410800983	-2.396946564885496	6.519083969465648	0.9465648854961831	-0.05397301349325337	0.4047976011994003	0.13043478260869565	
1.7089523351942095E12	2.684782608695652	-6.413043478260869	2.0217391304347827	3906.227106227106	128.0	128.0	-1.615452362948938	5.704965079422603	4.089512716473665	477.8965917702427	597.6308283365761	-3.0229007633587783	6.824427480916031	0.9923664122137404	-0.04497751124437781	0.416791604197901	0.13493253373313344	
1.7089523352137412E12	2.684782608695652	-6.434782608695652	2.0543478260869565	3904.7619047619046	128.0	128.0	-1.5989365099592818	5.703955376619742	4.10501886666046	477.8941396348643	597.6259961874481	-3.5267175572519083	6.65648854961832	0.549618320610687	-0.05547226386806597	0.41379310344827586	0.12893553223388304	
1.708952335233273E12	2.6956521739130435	-6.456521739130435	2.0217391304347827	3882.7838827838827	128.0	128.0	-1.5810503460228857	5.7117445125275275	4.130694166504641	477.8960147972125	597.6500126898304	-3.9847328244274807	6.977099236641221	0.5954198473282443	-0.04947526236881559	0.41829085457271364	0.12593703148425786	
1.7089523352528047E12	2.684782608695652	-6.510869565217391	2.032608695652174	3907.6923076923076	128.0	128.0	-1.5382822201588418	5.7514835299829885	4.2132013098241465	477.89565418906864	597.624409511615	-3.679389312977099	6.6106870229007635	0.5343511450381679	-0.046476761619190406	0.4077961019490255	0.12593703148425786	
1.7089523352723364E12	2.6956521739130435	-6.5	2.032608695652174	3906.227106227106	128.0	128.0	-1.5488119779601073	5.700998389839935	4.1521864118798275	477.8963032837276	597.6365259452493	-2.931297709923664	6.900763358778626	0.6106870229007634	-0.047976011994003	0.42728635682158916	0.12143928035982009	
1.7089523352918682E12	2.684782608695652	-6.489130434782608	2.0217391304347827	3900.3663003663	128.0	128.0	-1.567852087956916	5.694363199992561	4.1265111120356455	477.8960147972125	597.6294580256293	-2.916030534351145	6.946564885496183	0.6106870229007634	-0.05547226386806597	0.424287856071964	0.12143928035982009	
1.7089523353114E12	2.6739130434782608	-6.478260869565217	1.9782608695652173	3907.6923076923076	128.0	128.0	-1.5920128335968058	5.700132930294625	4.108120096697819	477.898106324447	597.607677293739	-2.381679389312977	6.8396946564885495	0.3969465648854962	-0.06296851574212893	0.43928035982008995	0.12893553223388304	
1.7089523353309316E12	2.6739130434782608	-6.413043478260869	2.0	3906.227106227106	128.0	128.0	-1.607807470298704	5.689242564349481	4.081435094050777	477.89825056770457	597.6215967680928	-2.2442748091603053	6.641221374045801	0.4427480916030534	-0.047976011994003	0.40929535232383807	0.13193403298350825	
1.7089523353504634E12	2.684782608695652	-6.445652173913043	2.043478260869565	3904.7619047619046	128.0	128.0	-1.604057145602363	5.69234379438684	4.088286648784477	477.89853905421967	597.6129421726397	-4.106870229007633	6.8396946564885495	0.38167938931297707	-0.05247376311844078	0.43178410794602695	0.12893553223388304	
1.708952335369995E12	2.684782608695652	-6.467391304347826	2.0652173913043477	3907.6923076923076	128.0	128.0	-1.656850177866242	6.000952243918449	4.344102066052207	477.89651964861395	597.6622733667223	-5.099236641221374	6.549618320610687	0.2748091603053435	-0.041979010494752625	0.4077961019490255	0.12593703148425786	
1.7089523353895269E12	2.6739130434782608	-6.521739130434782	2.0543478260869565	3881.3186813186812	128.0	128.0	-1.2584503005087735	5.931787601922465	4.673337301413691	477.89579843232616	597.5101688516341	-3.3893129770992365	6.412213740458015	0.183206106870229	-0.06746626686656672	0.416791604197901	0.1394302848575712	
1.7089523354090583E12	2.6739130434782608	-6.489130434782608	2.0	3904.7619047619046	128.0	128.0	-1.5453501397788691	5.628444031291489	4.08309389151262	477.900991189598	597.2733935443632	-1.7709923664122136	6.595419847328244	0.4427480916030534	-0.06746626686656672	0.4197901049475262	0.12443778110944527	
1.70895233542859E12	2.760869565217391	-6.445652173913043	1.9782608695652173	3907.6923076923076	128.0	128.0	-1.661249597221565	5.64950354689402	3.9882539496724547	477.89796208118946	597.476776537511	-2.213740458015267	6.671755725190839	0.5801526717557252	-0.07496251874062969	0.416791604197901	0.13493253373313344	
1.7089523354481218E12	2.6956521739130435	-6.456521739130435	2.010869565217391	3900.3663003663	128.0	128.0	-1.6249724179473424	5.738862244947224	4.113889826999882	477.8972408649017	597.6311168230911	-2.1068702290076335	6.931297709923664	0.21374045801526717	-0.05697151424287856	0.4287856071964018	0.1199400299850075	
1.7089523354676536E12	2.652173913043478	-6.456521739130435	2.0869565217391304	3906.227106227106	128.0	128.0	-1.6152359980626105	5.74802169180175	4.132785693739139	477.89846693259085	597.6568642445641	-4.7328244274809155	6.152671755725191	0.1984732824427481	-0.05697151424287856	0.4257871064467766	0.12293853073463268	
1.7089523354871853E12	2.7065217391304346	-6.521739130434782	2.0652173913043477	3906.227106227106	128.0	128.0	-1.6079517135562555	5.753719300475038	4.145767586918782	477.8972408649017	597.662706096495	-4.824427480916031	6.931297709923664	0.6717557251908397	-0.046476761619190406	0.4047976011994003	0.13793103448275862	
1.708952335506717E12	2.760869565217391	-6.489130434782608	2.010869565217391	3904.7619047619046	128.0	128.0	-1.5911473740514963	5.758407206345463	4.167259832293968	477.8969523783866	597.6795104359998	-2.1221374045801524	7.419847328244274	1.2213740458015268	-0.05547226386806597	0.43178410794602695	0.12893553223388304	
1.7089523355262488E12	2.6956521739130435	-6.434782608695652	1.9891304347826086	3906.227106227106	128.0	128.0	-1.5797521567049215	5.746290772711131	4.16653861600621	477.8952935809247	597.6872995719075	-0.9770992366412213	6.854961832061068	1.0229007633587786	-0.05397301349325337	0.4332833583208396	0.13043478260869565	
1.7089523355457805E12	2.6630434782608696	-6.413043478260869	2.032608695652174	3881.3186813186812	128.0	128.0	-1.5695108854187592	5.752709597672176	4.183198712253417	477.8951493376672	597.6988390325116	-3.709923664122137	6.137404580152672	0.7480916030534351	-0.05697151424287856	0.41079460269865065	0.13343328335832083	
1.7089523355653123E12	2.6956521739130435	-6.456521739130435	2.0652173913043477	3907.6923076923076	128.0	128.0	-1.558836884359942	5.767783018086317	4.208946133726375	477.8951493376672	597.7100178849719	-6.442748091603053	5.847328244274809	0.6412213740458015	-0.04047976011994003	0.40929535232383807	0.13193403298350825	
1.708952335584844E12	2.7282608695652173	-6.532608695652174	2.0	3906.227106227106	128.0	128.0	-1.5173669478138625	5.783577654788216	4.266210706974353	477.8952935809247	597.7381453201945	-4.549618320610687	6.3969465648854955	0.48854961832061067	-0.06746626686656672	0.416791604197901	0.12143928035982009	
1.7089523356043757E12	2.7391304347826084	-6.5	2.0217391304347827	3898.9010989010985	128.0	128.0	-1.4926292291437662	5.8036274675878845	4.310998238444118	477.893274175319	597.7251634270148	-1.5114503816793892	6.488549618320611	0.6259541984732824	-0.04947526236881559	0.41079460269865065	0.12293853073463268	
1.7089523356239075E12	2.7065217391304346	-6.467391304347826	2.032608695652174	3907.6923076923076	128.0	128.0	-1.481306133425967	5.815455414707115	4.334149281281148	477.8927693239176	597.7374241039067	-2.1068702290076335	6.473282442748092	0.4427480916030534	-0.06146926536731634	0.42278860569715143	0.13343328335832083	
1.7089523356434392E12	2.684782608695652	-6.467391304347826	1.9782608695652173	3906.227106227106	128.0	128.0	-1.4786376331612627	5.833630065158614	4.354992431997351	477.8936347834629	597.7121815338352	-2.0763358778625953	6.427480916030534	0.3969465648854962	-0.05247376311844078	0.40629685157421286	0.13493253373313344	
1.708952335662971E12	2.6956521739130435	-6.456521739130435	2.043478260869565	3904.7619047619046	128.0	128.0	-1.5064044602399422	5.823460915501227	4.317056455261285	477.89406751323554	597.6785728548257	-2.2748091603053435	6.1679389312977095	0.48854961832061067	-0.05397301349325337	0.41079460269865065	0.13343328335832083	
1.7089523356825027E12	2.7391304347826084	-6.456521739130435	2.0543478260869565	3906.227106227106	128.0	128.0	-1.5648951011771086	5.8080990085719835	4.243203907394875	477.8951493376672	597.6557824201325	-4.076335877862595	5.984732824427481	0.33587786259541985	-0.06146926536731634	0.41079460269865065	0.13043478260869565	
1.7089523357020344E12	2.6956521739130435	-6.510869565217391	2.043478260869565	3881.3186813186812	128.0	128.0	-1.58234853534085	5.785885546909041	4.203537011568191	477.8957263106974	597.6457575137326	-3.6946564885496183	6.488549618320611	0.2900763358778626	-0.046476761619190406	0.41529235382308843	0.13343328335832083	
1.7089523357215662E12	2.760869565217391	-6.5	2.0652173913043477	3907.6923076923076	128.0	128.0	-1.5884067521580163	5.760931463352616	4.1725247111946	477.8924087157737	597.6541957442994	-1.7862595419847327	5.938931297709924	-0.13740458015267176	-0.05997001499250375	0.416791604197901	0.12443778110944527	
1.708952335741098E12	2.7065217391304346	-6.467391304347826	2.0869565217391304	3907.6923076923076	128.0	128.0	-1.5872528060976037	5.750906556952781	4.163653750855178	477.8948608511521	597.6593163799425	-2.213740458015267	7.007633587786259	0.6870229007633587	-0.05247376311844078	0.4197901049475262	0.13493253373313344	
1.7089523357606296E12	2.717391304347826	-6.445652173913043	1.9456521739130435	3898.9010989010985	128.0	128.0	-1.5886231170443437	5.773913356532258	4.185290239487915	477.8947166078945	597.6516714872922	-1.7557251908396947	6.793893129770992	0.16793893129770993	-0.046476761619190406	0.41079460269865065	0.11544227886056971	
1.7089523357801614E12	2.7065217391304346	-6.445652173913043	2.0760869565217392	3878.388278388278	128.0	128.0	-1.5875412926127068	5.780187938235752	4.192646645623046	477.89651964861395	597.6532581631253	-1.83206106870229	6.6106870229007635	0.38167938931297707	-0.041979010494752625	0.4257871064467766	0.11544227886056971	
1.708952335799693E12	2.684782608695652	-6.467391304347826	2.0652173913043477	3906.227106227106	128.0	128.0	-1.5880461440141374	5.790789817665795	4.202743673651657	477.898106324447	597.6480654058535	-4.076335877862595	6.244274809160305	0.38167938931297707	-0.038980509745127435	0.42278860569715143	0.13343328335832083	
1.7089523358192249E12	2.684782608695652	-6.489130434782608	2.0	3906.227106227106	128.0	128.0	-1.5939601175737523	5.802834129671352	4.208874012097599	477.89550994581106	597.6481375274823	-3.099236641221374	6.091603053435114	0.5801526717557252	-0.041979010494752625	0.41079460269865065	0.1409295352323838	
1.7089523358387566E12	2.7282608695652173	-6.489130434782608	2.0760869565217392	3906.227106227106	128.0	128.0	-1.5891279684457742	5.795549845164997	4.206421876719222	477.89637540535637	597.636958675022	-2.33587786259542	6.427480916030534	0.366412213740458	-0.047976011994003	0.43178410794602695	0.13493253373313344	
1.7089523358582883E12	2.717391304347826	-6.510869565217391	2.0543478260869565	3882.7838827838827	128.0	128.0	-1.5875412926127068	5.80543050830728	4.217889215694573	477.8969523783866	597.6358768505904	-2.763358778625954	6.717557251908397	0.2900763358778626	-0.06596701649175413	0.4287856071964018	0.1199400299850075	
1.70895233587782E12	2.7065217391304346	-6.510869565217391	2.0543478260869565	3907.6923076923076	128.0	128.0	-1.5940322392025281	5.791366790696	4.197334551493472	477.8980342028182	597.63472290453	-2.213740458015267	6.5038167938931295	0.6412213740458015	-0.05247376311844078	0.4197901049475262	0.12893553223388304	
1.7089523358973518E12	2.717391304347826	-6.489130434782608	2.0652173913043477	3906.227106227106	128.0	128.0	-1.5931667796572184	5.806151724595038	4.212984944937819	477.8957263106974	597.6220294978655	-1.083969465648855	6.7328244274809155	0.7938931297709924	-0.05247376311844078	0.416791604197901	0.1169415292353823	
1.7089523359168835E12	2.717391304347826	-6.456521739130435	2.0869565217391304	3898.9010989010985	128.0	128.0	-1.5916522254529268	5.80629596785259	4.214643742399662	477.89788995956064	597.6367423101357	-1.1450381679389312	6.717557251908397	0.8702290076335878	-0.05697151424287856	0.41079460269865065	0.13343328335832083	
1.708952335936415E12	2.717391304347826	-6.456521739130435	2.0652173913043477	3907.6923076923076	128.0	128.0	-1.5894885765896531	5.8173305770552854	4.227842000465632	477.8980342028182	597.6166203757073	-1.5419847328244274	6.625954198473282	0.8091603053435115	-0.047976011994003	0.43478260869565216	0.12443778110944527	
1.7089523359559468E12	2.7282608695652173	-6.434782608695652	2.108695652173913	3906.227106227106	128.0	128.0	-1.5911473740514963	5.829519132318394	4.238371758266897	477.8989717839923	597.6233998088121	-2.229007633587786	6.366412213740458	0.6564885496183206	-0.04947526236881559	0.41529235382308843	0.12593703148425786	
1.7089523359754785E12	2.7065217391304346	-6.456521739130435	2.0543478260869565	3904.7619047619046	128.0	128.0	-1.5761460752661318	5.841491322695175	4.265345247429043	477.8980342028182	597.629890755402	-2.183206106870229	6.809160305343511	1.0534351145038168	-0.05247376311844078	0.43178410794602695	0.13493253373313344	
1.7089523359950103E12	2.7391304347826084	-6.467391304347826	2.0543478260869565	3907.6923076923076	128.0	128.0	-1.5275360974712489	5.858800513601365	4.331264416130116	477.899404513765	597.632775620553	-2.3664122137404577	7.236641221374046	0.9465648854961831	-0.041979010494752625	0.4332833583208396	0.13343328335832083	
1.708952336014542E12	2.75	-6.467391304347826	2.0978260869565215	3881.3186813186812	128.0	128.0	-1.536479179439447	5.847261052997238	4.310781873557791	477.90019785168147	597.6183512947979	-2.183206106870229	7.190839694656488	0.7480916030534351	-0.05697151424287856	0.42278860569715143	0.11244377811094453	
1.7089523360340737E12	2.6956521739130435	-6.510869565217391	2.0652173913043477	3906.227106227106	128.0	128.0	-1.5611447764807673	5.81963846917611	4.2584936926953425	477.90120755448436	597.6267895253646	-1.816793893129771	6.977099236641221	0.8244274809160305	-0.05697151424287856	0.41829085457271364	0.13043478260869565	
1.7089523360536055E12	2.7065217391304346	-6.489130434782608	2.0760869565217392	3906.227106227106	128.0	128.0	-1.5801127648488005	5.807233549026675	4.227120784177874	477.90178452751456	597.6116439833218	-1.0534351145038168	6.442748091603053	0.6564885496183206	-0.05397301349325337	0.41079460269865065	0.13343328335832083	
1.7089523360731372E12	2.7391304347826084	-6.445652173913043	2.0869565217391304	3898.9010989010985	128.0	128.0	-1.5972777124974387	5.823028185728573	4.225750473231134	477.9017124058858	597.6085427532844	-0.9618320610687022	6.8396946564885495	0.5190839694656488	-0.05697151424287856	0.4287856071964018	0.12293853073463268	
1.708952336092669E12	2.75	-6.445652173913043	2.0978260869565215	3907.6923076923076	128.0	128.0	-1.602975321170726	5.830528835121255	4.227553513950529	477.9030827168325	597.6115718616929	-2.1221374045801524	6.7328244274809155	0.5343511450381679	-0.05247376311844078	0.416791604197901	0.12893553223388304	
1.7089523361122007E12	2.7391304347826084	-6.5	2.130434782608696	3906.227106227106	128.0	128.0	-1.6541816776015374	6.026339057247526	4.372157379645989	477.90445302777925	597.6468393381643	-2.595419847328244	6.870229007633587	0.549618320610687	-0.047976011994003	0.424287856071964	0.12443778110944527	
1.7089523361317324E12	2.717391304347826	-6.5	2.141304347826087	3906.227106227106	128.0	128.0	-1.2059457547599979	6.09276307735003	4.886817322590033	477.90091906796926	597.4528321567574	-1.984732824427481	6.717557251908397	0.564885496183206	-0.05997001499250375	0.416791604197901	0.12143928035982009	
1.7089523361512642E12	2.7391304347826084	-6.478260869565217	2.0978260869565215	3906.227106227106	128.0	128.0	-1.376874014958622	5.798362588687252	4.42148857372863	477.904525149408	597.2668304761446	-1.083969465648855	6.931297709923664	0.916030534351145	-0.05697151424287856	0.41079460269865065	0.13343328335832083	
1.708952336170796E12	2.75	-6.467391304347826	2.0760869565217392	3881.3186813186812	128.0	128.0	-1.6621150567668745	5.779466721947995	4.11735166518112	477.90531848732456	597.4811038352375	-1.083969465648855	6.824427480916031	0.48854961832061067	-0.06296851574212893	0.43178410794602695	0.12143928035982009	
1.7089523361903276E12	2.7282608695652173	-6.456521739130435	2.0869565217391304	3907.6923076923076	128.0	128.0	-1.6135050789719916	5.83831797102904	4.224812892057049	477.9037318114915	597.5970032926803	-1.2519083969465647	6.549618320610687	0.6259541984732824	-0.05547226386806597	0.41379310344827586	0.12143928035982009	
1.7089523362098594E12	2.6956521739130435	-6.445652173913043	2.1847826086956523	3906.227106227106	128.0	128.0	-1.5948255771190618	5.849641066746839	4.254815489627777	477.90445302777925	597.6233276871834	-2.9618320610687023	6.854961832061068	1.1450381679389312	-0.06746626686656672	0.43178410794602695	0.1169415292353823	
1.708952336229391E12	2.7065217391304346	-6.478260869565217	2.0652173913043477	3898.9010989010985	128.0	128.0	-1.5822764137120742	5.8575023242834	4.275225910571327	477.90531848732456	597.6421514322939	-3.7251908396946565	7.32824427480916	0.8702290076335878	-0.037481259370314844	0.424287856071964	0.1169415292353823	
1.7089523362489229E12	2.760869565217391	-6.434782608695652	2.130434782608696	3879.8534798534797	128.0	128.0	-1.5811945892804373	5.864786608789755	4.283592019509318	477.90632819012745	597.6322707691515	-2.229007633587786	6.961832061068702	1.2671755725190839	-0.06146926536731634	0.42278860569715143	0.11544227886056971	
1.7089523362684546E12	2.7391304347826084	-6.456521739130435	2.0978260869565215	3907.6923076923076	128.0	128.0	-1.571313926138154	5.875244244962245	4.303930318824091	477.9080591092181	597.6461902435053	-1.7099236641221374	6.748091603053435	1.618320610687023	-0.04497751124437781	0.424287856071964	0.1169415292353823	
1.7089523362879863E12	2.6630434782608696	-6.434782608695652	2.0543478260869565	3906.227106227106	128.0	128.0	-1.5501101672780715	5.875821217992452	4.32571105071438	477.9080591092181	597.6492914735427	-2.045801526717557	6.229007633587786	0.8549618320610687	-0.046476761619190406	0.4257871064467766	0.13043478260869565	
1.708952336307518E12	2.7391304347826084	-6.456521739130435	2.2065217391304346	3906.227106227106	128.0	128.0	-1.5328730980006575	5.879427299431241	4.346554201430584	477.90603970361235	597.6557824201325	-3.3435114503816794	6.045801526717557	0.5190839694656488	-0.06146926536731634	0.42278860569715143	0.13793103448275862	
1.7089523363270498E12	2.7391304347826084	-6.510869565217391	2.152173913043478	3879.8534798534797	128.0	128.0	-1.5146263259203823	5.890101300490057	4.375474974569675	477.90632819012745	597.6579460689958	-4.580152671755725	6.641221374045801	0.8244274809160305	-0.04947526236881559	0.4257871064467766	0.13343328335832083	
1.7089523363465815E12	2.717391304347826	-6.510869565217391	2.0978260869565215	3906.227106227106	128.0	128.0	-1.4787818764188143	5.896664368708655	4.4178824922898405	477.90741001455905	597.6809528685752	-2.351145038167939	6.870229007633587	0.6412213740458015	-0.047976011994003	0.42728635682158916	0.12143928035982009	
1.7089523363661133E12	2.7282608695652173	-6.456521739130435	2.141304347826087	3907.6923076923076	128.0	128.0	-1.4597417664220056	5.92673908790816	4.466997321486154	477.90769850107415	597.6862898691046	-0.366412213740458	6.458015267175572	0.9770992366412213	-0.05697151424287856	0.4257871064467766	0.11244377811094453	
1.708952336385645E12	2.6956521739130435	-6.413043478260869	2.119565217391304	3897.435897435897	128.0	128.0	-1.462338145057934	5.935537926618807	4.473199781560872	477.9089245687634	597.6870832070211	-1.5419847328244274	6.748091603053435	1.114503816793893	-0.047976011994003	0.416791604197901	0.1169415292353823	
1.7089523364051768E12	2.7065217391304346	-6.423913043478261	2.141304347826087	3907.6923076923076	128.0	128.0	-1.4963074322113314	5.938567035027389	4.4422596028160575	477.9079148659605	597.6500126898304	-2.900763358778626	6.900763358778626	1.0076335877862594	-0.04047976011994003	0.416791604197901	0.12443778110944527	
1.7089523364247085E12	2.717391304347826	-6.467391304347826	2.152173913043478	3906.227106227106	128.0	128.0	-1.5279688272439036	5.930417290975726	4.4024484637318215	477.90784274433173	597.6274386200236	-3.0534351145038165	6.488549618320611	0.8702290076335878	-0.0704647676161919	0.41379310344827586	0.1169415292353823	
1.7089523364442402E12	2.717391304347826	-6.445652173913043	2.1630434782608696	3904.7619047619046	128.0	128.0	-1.5684290609871223	5.92500816881754	4.356579107830418	477.90899669039214	597.6308283365761	-3.068702290076336	6.900763358778626	0.9618320610687022	-0.047976011994003	0.424287856071964	0.1169415292353823	
1.7089523364637717E12	2.75	-6.489130434782608	2.119565217391304	3907.6923076923076	128.0	128.0	-1.5773000213265445	5.923060884840594	4.34576086351405	477.90683304152884	597.6265731604783	-3.145038167938931	6.473282442748092	0.7633587786259541	-0.05547226386806597	0.424287856071964	0.14692653673163417	
1.7089523364833035E12	2.7065217391304346	-6.478260869565217	2.152173913043478	3881.3186813186812	128.0	128.0	-1.582997629999832	5.933734885899412	4.350737255899579	477.910655487854	597.627294376766	-3.3587786259541983	7.2824427480916025	1.129770992366412	-0.05397301349325337	0.4332833583208396	0.12293853073463268	
1.7089523365028352E12	2.717391304347826	-6.4021739130434785	2.032608695652174	3907.6923076923076	128.0	128.0	-1.5679242095856918	5.932220331695119	4.364296122109428	477.9097900283087	597.6238325385848	-1.8931297709923662	6.885496183206107	1.4198473282442747	-0.038980509745127435	0.41829085457271364	0.13343328335832083	
1.708952336522367E12	2.6956521739130435	-6.380434782608695	2.130434782608696	3906.227106227106	128.0	128.0	-1.5701599800777413	5.944120400443125	4.373960420365384	477.909357298536	597.6138797538138	-2.396946564885496	7.0534351145038165	1.465648854961832	-0.05997001499250375	0.41379310344827586	0.12143928035982009	
1.7089523365418987E12	2.717391304347826	-6.423913043478261	2.119565217391304	3897.435897435897	128.0	128.0	-1.5601350736779063	5.937845818739631	4.377710745061725	477.90841971736194	597.6086869965419	-5.221374045801526	6.824427480916031	0.916030534351145	-0.046476761619190406	0.41529235382308843	0.11544227886056971	
1.7089523365614304E12	2.717391304347826	-6.456521739130435	2.0543478260869565	3906.227106227106	128.0	128.0	-1.5623708441699558	5.953856820327857	4.3914859761579015	477.90827547410436	597.6107064021476	-5.984732824427481	6.824427480916031	1.114503816793893	-0.04047976011994003	0.41379310344827586	0.12893553223388304	
1.7089523365809622E12	2.7282608695652173	-6.456521739130435	2.152173913043478	3906.227106227106	128.0	128.0	-1.5612168981095431	5.941235535292093	4.38001863718255	477.9087803255058	597.6102015507462	-4.458015267175572	7.0534351145038165	1.129770992366412	-0.05397301349325337	0.4257871064467766	0.12293853073463268	
1.708952336600494E12	2.7065217391304346	-6.456521739130435	2.119565217391304	3904.7619047619046	128.0	128.0	-1.5618659927685252	5.935754291505133	4.373888298736608	477.90777062270297	597.600609374119	-4.5038167938931295	7.206106870229007	1.2366412213740459	-0.041979010494752625	0.41529235382308843	0.13043478260869565	
1.7089523366200256E12	2.6956521739130435	-6.467391304347826	2.108695652173913	3907.6923076923076	128.0	128.0	-1.561938114397301	5.945490711389865	4.383552596992564	477.90784274433173	597.6080379018829	-4.198473282442748	7.022900763358779	1.083969465648855	-0.04947526236881559	0.4287856071964018	0.13043478260869565	
1.7089523366395574E12	2.6630434782608696	-6.456521739130435	2.0978260869565215	3881.3186813186812	128.0	128.0	-1.5670587500403823	5.941091292034542	4.3740325419941595	477.90784274433173	597.6120045914656	-3.633587786259542	7.083969465648854	1.3587786259541985	-0.06146926536731634	0.42278860569715143	0.13043478260869565	
1.708952336659089E12	2.684782608695652	-6.423913043478261	2.0978260869565215	3907.6923076923076	128.0	128.0	-1.5723957505697908	5.946500414192726	4.374104663622935	477.9080591092181	597.6094082128296	-3.9236641221374042	7.206106870229007	1.3587786259541985	-0.046476761619190406	0.41829085457271364	0.13043478260869565	
1.7089523366786208E12	2.7065217391304346	-6.434782608695652	2.141304347826087	3906.227106227106	128.0	128.0	-1.5572502085268747	5.941596143435972	4.384345934909097	477.90690516315766	597.6031336311262	-4.244274809160305	7.175572519083969	1.2213740458015268	-0.05997001499250375	0.43178410794602695	0.12143928035982009	
1.7089523366981526E12	2.7065217391304346	-6.456521739130435	2.0978260869565215	3898.9010989010985	128.0	128.0	-1.5466483290968334	5.970733281461392	4.4240849523645585	477.90625606849864	597.5925317516961	-4.412213740458015	6.946564885496183	0.9770992366412213	-0.05547226386806597	0.43178410794602695	0.1169415292353823	
1.7089523367176843E12	2.7065217391304346	-6.478260869565217	2.0869565217391304	3907.6923076923076	128.0	128.0	-1.515419663836916	5.9829218367245005	4.467502172887585	477.9072657713015	597.5941184275292	-4.778625954198473	6.854961832061068	0.9923664122137404	-0.05997001499250375	0.43478260869565216	0.13193403298350825	
1.708952336737216E12	2.7391304347826084	-6.478260869565217	2.0869565217391304	3906.227106227106	128.0	128.0	-1.5106596363377138	5.976142403619576	4.465482767281863	477.905823338726	597.5960657115062	-4.3206106870229	6.412213740458015	0.7480916030534351	-0.05547226386806597	0.424287856071964	0.1169415292353823	
1.7089523367567478E12	2.6956521739130435	-6.456521739130435	2.0978260869565215	3904.7619047619046	128.0	128.0	-1.5386428283027207	5.936114899649013	4.397472071346292	477.90503000080946	597.6001045227176	-3.5114503816793894	6.900763358778626	0.7633587786259541	-0.05547226386806597	0.42728635682158916	0.11394302848575712	
1.7089523367762795E12	2.7065217391304346	-6.456521739130435	2.0869565217391304	3906.227106227106	128.0	128.0	-1.5659048039799697	5.9277487907110205	4.361843986731051	477.90603970361235	597.6016911985506	-3.633587786259542	6.671755725190839	1.114503816793893	-0.04497751124437781	0.424287856071964	0.12143928035982009	
1.7089523367958113E12	2.6956521739130435	-6.467391304347826	2.0869565217391304	3881.3186813186812	128.0	128.0	-1.5696551286763107	5.910872329577486	4.341217200901175	477.90301059520374	597.5979408738543	-4.213740458015267	6.519083969465648	0.732824427480916	-0.05547226386806597	0.40629685157421286	0.12143928035982009	
1.708952336815343E12	2.7282608695652173	-6.467391304347826	2.0869565217391304	3906.227106227106	128.0	128.0	-1.5816994406818679	5.917363276167308	4.335663835485439	477.9028663519462	597.6117882265793	-4.473282442748092	6.473282442748092	0.732824427480916	-0.047976011994003	0.42728635682158916	0.12893553223388304	
1.7089523368348748E12	2.6956521739130435	-6.489130434782608	2.152173913043478	3906.227106227106	128.0	128.0	-1.621943309538759	6.0247523814144595	4.4028090718757005	477.90358756823395	597.6328477421818	-4.33587786259542	6.778625954198473	0.8244274809160305	-0.05697151424287856	0.41079460269865065	0.13343328335832083	
1.7089523368544065E12	2.717391304347826	-6.510869565217391	2.0869565217391304	3895.9706959706955	128.0	128.0	-1.2774904105055822	6.1338002841234545	4.856309873617873	477.90120755448436	597.5701740467756	-4.183206106870228	6.3969465648854955	0.8854961832061068	-0.046476761619190406	0.41079460269865065	0.1199400299850075	
1.7089523368739382E12	2.7065217391304346	-6.489130434782608	2.108695652173913	3906.227106227106	128.0	128.0	-1.211354876918182	5.980325458088572	4.76897058117039	477.90236150054477	597.2731050578482	-3.7862595419847325	6.671755725190839	0.5190839694656488	-0.034482758620689655	0.41829085457271364	0.1199400299850075	
1.70895233689347E12	2.7391304347826084	-6.467391304347826	2.0760869565217392	3906.227106227106	128.0	128.0	-1.6321845808249213	5.81963846917611	4.187453888351189	477.9033712033476	597.4373981281994	-3.4351145038167936	6.595419847328244	0.7480916030534351	-0.05697151424287856	0.41829085457271364	0.12593703148425786	
1.7089523369130017E12	2.7282608695652173	-6.423913043478261	2.0217391304347827	3903.296703296703	128.0	128.0	-1.6066535242382913	5.9150553840464815	4.30840185980819	477.9022172572872	597.5796941017741	-3.0381679389312977	6.3206106870229	0.4580152671755725	-0.05697151424287856	0.41829085457271364	0.12293853073463268	
1.7089523369325334E12	2.641304347826087	-6.456521739130435	2.1630434782608696	3906.227106227106	128.0	128.0	-1.572972723599997	5.92176269552263	4.348789971922633	477.90459727103683	597.6206591869187	-2.427480916030534	6.809160305343511	0.6412213740458015	-0.031484257871064465	0.41079460269865065	0.12593703148425786	
1.7089523369520652E12	2.717391304347826	-6.478260869565217	2.0978260869565215	3881.3186813186812	128.0	128.0	-1.5752806157208223	5.926089993249177	4.350809377528355	477.9026499870599	597.6247701197589	-5.572519083969466	6.488549618320611	0.8854961832061068	-0.06146926536731634	0.42278860569715143	0.13343328335832083	
1.708952336971597E12	2.7391304347826084	-6.478260869565217	2.0978260869565215	3906.227106227106	128.0	128.0	-1.5620102360260768	5.928037277226124	4.366027041200047	477.90149604099946	597.6314053096063	-5.770992366412213	6.3969465648854955	1.5572519083969465	-0.037481259370314844	0.424287856071964	0.12143928035982009	
1.7089523369911284E12	2.684782608695652	-6.445652173913043	2.0543478260869565	3906.227106227106	128.0	128.0	-1.5552308029211526	5.918661465485271	4.363430662564118	477.90178452751456	597.6524648252088	-2.8091603053435112	7.572519083969465	1.6335877862595418	-0.04947526236881559	0.4257871064467766	0.12293853073463268	
1.7089523370106602E12	2.7065217391304346	-6.434782608695652	2.0217391304347827	3897.435897435897	128.0	128.0	-1.5366234226969986	5.911088694463813	4.374465271766814	477.9010633112268	597.6575133392231	-1.8015267175572518	6.7328244274809155	1.7404580152671756	-0.05247376311844078	0.41379310344827586	0.12893553223388304	
1.708952337030192E12	2.6956521739130435	-6.445652173913043	2.108695652173913	3906.227106227106	128.0	128.0	-1.5177275559577414	5.918156614083841	4.400429058126099	477.89962087865126	597.6725146380085	-4.3206106870229	6.33587786259542	0.9618320610687022	-0.047976011994003	0.43178410794602695	0.12443778110944527	
1.7089523370497236E12	2.717391304347826	-6.510869565217391	2.0978260869565215	3907.6923076923076	128.0	128.0	-1.4950092428933672	5.9260178716204015	4.431008628727034	477.8986832974772	597.6764813275911	-6.7328244274809155	6.702290076335878	1.1603053435114503	-0.04497751124437781	0.4197901049475262	0.13193403298350825	
1.7089523370692554E12	2.7391304347826084	-6.510869565217391	2.032608695652174	3904.7619047619046	128.0	128.0	-1.4632757262320193	5.95501076638827	4.49173504015625	477.89918814887864	597.6950165861865	-4.7328244274809155	7.435114503816793	1.282442748091603	-0.05397301349325337	0.42278860569715143	0.1199400299850075	
1.708952337088787E12	2.7065217391304346	-6.467391304347826	2.0760869565217392	3907.6923076923076	128.0	128.0	-1.4439471297201074	5.964242334871571	4.520295205151464	477.89889966236353	597.6976850864512	-2.1374045801526718	7.145038167938931	1.4045801526717556	-0.05547226386806597	0.43178410794602695	0.11394302848575712	
1.7089523371083188E12	2.7065217391304346	-6.456521739130435	2.0543478260869565	3882.7838827838827	128.0	128.0	-1.4505101979387043	5.963593240212589	4.513083042273885	477.89861117584843	597.6902565586873	-2.5038167938931295	7.312977099236641	1.4351145038167938	-0.05247376311844078	0.43178410794602695	0.12443778110944527	
1.7089523371278506E12	2.6739130434782608	-6.456521739130435	2.043478260869565	3907.6923076923076	128.0	128.0	-1.4856334311525146	5.979604241800814	4.4939708106483	477.89709662164415	597.64885874377	-3.5114503816793894	6.931297709923664	1.2213740458015268	-0.046476761619190406	0.41829085457271364	0.13343328335832083	
1.7089523371473823E12	2.684782608695652	-6.445652173913043	2.0869565217391304	3906.227106227106	128.0	128.0	-1.523353043002253	5.961790199493194	4.438437156490941	477.8977457163031	597.6092639695721	-3.7709923664122136	6.900763358778626	1.3282442748091603	-0.05247376311844078	0.416791604197901	0.13193403298350825	
1.708952337166914E12	2.684782608695652	-6.456521739130435	2.0978260869565215	3897.435897435897	128.0	128.0	-1.5518410863686904	5.929551831430415	4.377710745061725	477.89947663539374	597.6081821451405	-4.015267175572519	7.297709923664121	0.9007633587786259	-0.06596701649175413	0.42278860569715143	0.12293853073463268	
1.7089523371864458E12	2.75	-6.478260869565217	2.043478260869565	3906.227106227106	128.0	128.0	-1.5526344242852241	5.888442503028215	4.335808078742991	477.8968802567578	597.598373603627	-4.1679389312977095	7.251908396946565	0.6870229007633587	-0.04947526236881559	0.41529235382308843	0.13793103448275862	
