"sep=	"
Shimmer_6D72_TimestampSync_Unix_CAL	Shimmer_6D72_Accel_LN_X_CAL	Shimmer_6D72_Accel_LN_Y_CAL	Shimmer_6D72_Accel_LN_Z_CAL	Shimmer_6D72_Battery_CAL	Shimmer_6D72_ECG_EMG_Status1_CAL	Shimmer_6D72_ECG_EMG_Status2_CAL	Shimmer_6D72_ECG_LA-RA_24BIT_CAL	Shimmer_6D72_ECG_LL-LA_24BIT_CAL	Shimmer_6D72_ECG_LL-RA_24BIT_CAL	Shimmer_6D72_ECG_RESP_24BIT_CAL	Shimmer_6D72_ECG_Vx-RL_24BIT_CAL	Shimmer_6D72_Gyro_X_CAL	Shimmer_6D72_Gyro_Y_CAL	Shimmer_6D72_Gyro_Z_CAL	Shimmer_6D72_Mag_X_CAL	Shimmer_6D72_Mag_Y_CAL	Shimmer_6D72_Mag_Z_CAL	
ms	m/(s^2)	m/(s^2)	m/(s^2)	mV	no_units	no_units	mV	mV	mV	mV	mV	deg/s	deg/s	deg/s	local_flux	local_flux	local_flux	
1.7103255695589775E12	1.826086956521739	-5.032608695652174	7.119565217391304	3973.626373626373	128.0	128.0	-2.997014283777986	32.81274471434888	29.815730430570895	498.7174569031545	25.15032650832254	0.22900763358778625	7.480916030534351	0.6259541984732824	-0.06896551724137931	0.767616191904048	0.9295352323838081	
1.7103255695785093E12	1.7826086956521738	-4.978260869565217	7.239130434782608	3975.0915750915747	128.0	128.0	-2.9887202964687702	32.840078811654905	29.851358515186135	498.7121199026251	24.992884992704987	-6.229007633587786	8.320610687022901	0.366412213740458	-0.041979010494752625	0.7556221889055472	0.9370314842578711	
1.7103255695980413E12	1.8152173913043477	-4.956521739130435	7.260869565217391	3975.0915750915747	128.0	128.0	-2.9821572282501734	32.86539350335521	29.883236275105034	498.70483561811875	24.764403672743285	-3.4351145038167936	7.877862595419847	0.4427480916030534	-0.04497751124437781	0.7586206896551724	0.952023988005997	
1.710325569617573E12	1.826086956521739	-4.989130434782608	7.271739130434782	3973.626373626373	128.0	128.0	-2.9721323218503386	32.90527676406822	29.93314444221788	498.71788963292715	24.323307791150548	-4.061068702290076	7.251908396946565	0.3511450381679389	-0.041979010494752625	0.767616191904048	0.9370314842578711	
1.7103255696371047E12	1.8369565217391304	-5.043478260869565	7.293478260869565	3973.626373626373	128.0	128.0	-2.956409806777216	32.96722924318662	30.01081943640941	498.709595645618	23.395030307177343	-3.709923664122137	5.267175572519084	1.083969465648855	-0.047976011994003	0.7691154422788605	0.9310344827586207	
1.7103255696566367E12	1.8043478260869565	-4.989130434782608	7.228260869565217	3950.18315018315	128.0	128.0	-2.9493418871571886	33.025792005752564	30.07645011859538	498.71846660595736	22.950833195547247	-4.076335877862595	5.190839694656488	0.6259541984732824	-0.06296851574212893	0.7661169415292354	0.9235382308845577	
1.7103255696761685E12	1.8152173913043477	-5.010869565217392	7.217391304347826	3975.0915750915747	128.0	128.0	-2.887894259440215	33.08320082225809	30.19530656281788	498.70909079421654	23.095364939613933	-3.3740458015267176	5.557251908396946	0.8702290076335878	-0.05247376311844078	0.7721139430284857	0.9280359820089955	
1.7103255696957002E12	1.7717391304347825	-4.956521739130435	7.206521739130435	3975.0915750915747	128.0	128.0	-2.8863797052359232	33.11781920407048	30.231439498834554	498.71788963292715	23.313172258516822	-2.3664122137404577	6.5038167938931295	0.41221374045801523	-0.04947526236881559	0.760119940029985	0.9400299850074962	
1.7103255697152322E12	1.7826086956521738	-4.858695652173913	7.076086956521739	3973.626373626373	128.0	128.0	-2.9368648453789765	33.04230785874222	30.105443013363246	498.7098841321331	23.006150484818278	-0.32061068702290074	9.007633587786259	1.7099236641221374	-0.05547226386806597	0.7586206896551724	0.9280359820089955	
1.710325569734764E12	1.8043478260869565	-4.934782608695652	7.228260869565217	3975.0915750915747	128.0	128.0	-3.0079046497231308	32.96571468898233	29.9578100392592	498.7220005657674	23.002760768265816	-4.2748091603053435	6.381679389312977	1.0687022900763359	-0.04497751124437781	0.7616191904047975	0.9340329835082458	
1.7103255697542957E12	1.858695652173913	-4.978260869565217	7.195652173913043	3975.0915750915747	128.0	128.0	-3.0400708961571334	32.91508530558173	29.875014409424594	498.72546240394865	23.34627608612491	-2.0610687022900764	6.6106870229007635	1.2061068702290076	-0.046476761619190406	0.760119940029985	0.9325337331334332	
1.7103255697738276E12	1.8478260869565217	-5.0	7.25	3975.0915750915747	128.0	128.0	-3.0527643028216724	32.865970476385414	29.813206173563742	498.6914209951665	23.26968291636502	-2.6717557251908395	7.022900763358779	1.0534351145038168	-0.04497751124437781	0.7661169415292354	0.9235382308845577	
1.7103255697933594E12	1.8152173913043477	-5.076086956521739	7.119565217391304	3975.0915750915747	128.0	128.0	-3.062933452479059	32.84274731191961	29.77981385944055	498.7186829708437	23.48842781644199	-1.9694656488549618	5.374045801526718	1.2519083969465647	-0.06296851574212893	0.7661169415292354	0.9280359820089955	
1.710325569812891E12	1.8152173913043477	-4.978260869565217	7.326086956521739	3950.18315018315	128.0	128.0	-3.0778626296356477	32.86077771911356	29.78291508947791	498.7368576212952	22.970955129975692	-3.66412213740458	6.931297709923664	1.083969465648855	-0.05247376311844078	0.7616191904047975	0.9340329835082458	
1.710325569832423E12	1.7826086956521738	-4.978260869565217	7.217391304347826	3975.0915750915747	128.0	128.0	-3.0875269278916035	32.870081409225634	29.78255448133403	498.7463776762936	22.746079891452776	-2.1526717557251906	6.916030534351145	1.0534351145038168	-0.05697151424287856	0.7631184407796102	0.9250374812593702	
1.7103255698519548E12	1.8152173913043477	-4.989130434782608	7.195652173913043	3975.0915750915747	128.0	128.0	-3.0868057116038456	32.90001188516759	29.813206173563742	498.7280587825846	22.50028938058488	-2.6717557251908395	6.381679389312977	0.732824427480916	-0.05697151424287856	0.760119940029985	0.9430284857571214	
1.7103255698714866E12	1.8152173913043477	-4.913043478260869	7.3478260869565215	3973.626373626373	128.0	128.0	-3.073679575166652	32.909820426681094	29.836140851514443	498.73974248644623	22.757907838572006	-3.49618320610687	6.3206106870229	0.5801526717557252	-0.046476761619190406	0.760119940029985	0.9325337331334332	
1.7103255698910186E12	1.8369565217391304	-4.978260869565217	7.315217391304348	3975.0915750915747	128.0	128.0	-3.0772135349766656	32.91797017073276	29.840756635756094	498.7440697841728	23.436428122094647	-1.7099236641221374	6.8396946564885495	0.549618320610687	-0.05547226386806597	0.7721139430284857	0.9385307346326837	
1.7103255699105503E12	1.8043478260869565	-5.032608695652174	7.271739130434782	3975.0915750915747	128.0	128.0	-3.090123306527532	32.92575930664054	29.835636000113013	498.7409685541354	23.829563120551484	-1.8778625954198473	7.2824427480916025	0.3511450381679389	-0.05247376311844078	0.7691154422788605	0.9340329835082458	
1.710325569930082E12	1.8478260869565217	-5.010869565217392	7.282608695652174	3973.626373626373	128.0	128.0	-3.090483914671411	32.91551803535438	29.82503412068297	498.7563304610647	24.057251102596656	-1.9694656488549618	7.267175572519084	0.8396946564885496	-0.04497751124437781	0.7586206896551724	0.9340329835082458	
1.710325569949614E12	1.826086956521739	-4.967391304347826	7.260869565217391	3975.0915750915747	128.0	128.0	-3.0973354694051114	32.90931557527966	29.811980105874554	498.7478201088691	24.196734332649033	-1.9083969465648853	6.961832061068702	1.0687022900763359	-0.05397301349325337	0.775112443778111	0.9370314842578711	
1.7103255699691458E12	1.8152173913043477	-4.923913043478261	7.260869565217391	3948.7179487179483	128.0	128.0	-3.0903396714138593	32.913210143233556	29.822870471819698	498.74630555466484	24.093384038613326	-2.5343511450381677	6.33587786259542	1.099236641221374	-0.047976011994003	0.7766116941529235	0.9235382308845577	
1.7103255699886775E12	1.8152173913043477	-4.913043478260869	7.271739130434782	3975.0915750915747	128.0	128.0	-3.0617073847898704	32.979345676820955	29.917638292031086	498.7368576212952	23.668587645123917	-2.5038167938931295	6.748091603053435	1.0076335877862594	-0.04947526236881559	0.7781109445277361	0.9400299850074962	
1.7103255700082095E12	1.826086956521739	-4.934782608695652	7.282608695652174	3975.0915750915747	128.0	128.0	-3.069568642326432	33.03358114166035	29.96401249933392	498.76036927227614	23.589470218356876	-2.045801526717557	6.183206106870228	0.6564885496183206	-0.046476761619190406	0.760119940029985	0.9325337331334332	
1.7103255700277412E12	1.826086956521739	-4.967391304347826	7.282608695652174	3973.626373626373	128.0	128.0	-3.0669001420617277	32.972494122087255	29.90559398002553	498.73938187830237	23.514247359543727	-1.9389312977099236	6.3206106870229	0.9312977099236641	-0.05397301349325337	0.7631184407796102	0.9370314842578711	
1.710325570047273E12	1.8043478260869565	-4.989130434782608	7.293478260869565	3975.0915750915747	128.0	128.0	-3.0903396714138593	32.87116323365727	29.780823562243413	498.7443582706879	23.490447222047713	-1.9083969465648853	5.740458015267175	1.297709923664122	-0.05397301349325337	0.7631184407796102	0.9400299850074962	
1.710325570066805E12	1.8043478260869565	-4.989130434782608	7.293478260869565	3973.626373626373	128.0	128.0	-3.100580942700022	32.86308561123438	29.762504668534362	498.7353430670909	23.280789647196492	-2.5038167938931295	6.0	1.099236641221374	-0.05247376311844078	0.7721139430284857	0.9385307346326837	
1.7103255700863367E12	1.8478260869565217	-4.967391304347826	7.271739130434782	3973.626373626373	128.0	128.0	-3.1116876735314936	32.86070559748478	29.74901792395329	498.7598644208747	23.68070407875825	-2.4885496183206106	6.290076335877862	1.2061068702290076	-0.06146926536731634	0.767616191904048	0.9325337331334332	
1.7103255701058684E12	1.8369565217391304	-4.956521739130435	7.282608695652174	3973.626373626373	128.0	128.0	-3.1023839834194167	32.84959886665331	29.747214883233895	498.7350545805758	23.69866236432342	-2.687022900763359	6.106870229007633	1.1755725190839694	-0.05547226386806597	0.7796101949025487	0.9280359820089955	
1.7103255701254004E12	1.826086956521739	-4.956521739130435	7.304347826086956	3950.18315018315	128.0	128.0	-2.9152283567462396	32.96383952663416	30.048611169887923	498.7496231495885	23.721380677387796	-2.8091603053435112	5.6183206106870225	1.297709923664122	-0.04497751124437781	0.7691154422788605	0.9310344827586207	
1.7103255701449321E12	1.8043478260869565	-4.956521739130435	7.315217391304348	3975.0915750915747	128.0	128.0	-3.075049886113392	34.416946103208794	31.341896217095403	498.745944946521	23.00268864663704	-2.931297709923664	5.587786259541985	1.114503816793893	-0.04497751124437781	0.7721139430284857	0.9310344827586207	
1.7103255701644639E12	1.8152173913043477	-4.913043478260869	7.326086956521739	3973.626373626373	128.0	128.0	-3.352573913642635	33.12979139444726	29.777217480804623	498.7409685541354	23.31627348855418	-3.0381679389312977	5.557251908396946	1.2671755725190839	-0.05247376311844078	0.7871064467766117	0.9175412293853074	
1.7103255701839958E12	1.891304347826087	-4.989130434782608	7.228260869565217	3973.626373626373	128.0	128.0	-3.17017831446866	33.04966426487735	29.879485950408693	498.74298795974113	23.581608960820315	-2.6259541984732824	4.763358778625954	1.2366412213740459	-0.04497751124437781	0.7766116941529235	0.9280359820089955	
1.7103255702035276E12	1.7608695652173914	-4.858695652173913	7.369565217391304	3975.0915750915747	128.0	128.0	-3.097768199177766	32.969392892049896	29.871624692872132	498.7388770269009	22.93482219395902	-3.1755725190839694	3.4351145038167936	1.5877862595419847	-0.041979010494752625	0.7706146926536731	0.9295352323838081	
1.7103255702230593E12	1.8369565217391304	-5.076086956521739	7.173913043478261	3975.0915750915747	128.0	128.0	-3.0778626296356477	32.95258855254514	29.87472592290949	498.75308498776974	22.802479005155448	-2.778625954198473	6.641221374045801	0.9312977099236641	-0.05547226386806597	0.7721139430284857	0.9280359820089955	
1.7103255702425913E12	1.7826086956521738	-4.923913043478261	7.206521739130435	3975.0915750915747	128.0	128.0	-3.0725256291062393	32.95309340394657	29.88056777484033	498.7597201776171	22.180646321850578	-2.8244274809160306	7.343511450381679	0.22900763358778625	-0.06146926536731634	0.7556221889055472	0.9220389805097451	
1.710325570262123E12	1.8043478260869565	-4.934782608695652	7.304347826086956	3973.626373626373	128.0	128.0	-3.0510333837310535	32.987206934357516	29.936173550626464	498.74644979792237	21.420772841068846	-4.152671755725191	6.137404580152672	1.1450381679389312	-0.05397301349325337	0.7631184407796102	0.9370314842578711	
1.7103255702816548E12	1.826086956521739	-4.967391304347826	7.293478260869565	3950.18315018315	128.0	128.0	-3.0462733562318514	33.00119853034002	29.95492517410817	498.73750671595417	20.890462504680457	-2.7938931297709924	5.251908396946565	1.4351145038167938	-0.05247376311844078	0.7721139430284857	0.9310344827586207	
1.7103255703011868E12	1.858695652173913	-5.0	7.315217391304348	3976.556776556776	128.0	128.0	-3.0117992176770234	33.057092792641264	30.045293574964237	498.7455122167483	20.451530271950993	-3.847328244274809	4.122137404580153	1.297709923664122	-0.05547226386806597	0.7586206896551724	0.9280359820089955	
1.7103255703207185E12	1.8695652173913042	-4.989130434782608	7.282608695652174	3975.0915750915747	128.0	128.0	-2.9859796745752902	33.098057877785905	30.11207820321062	498.7616674615941	19.68040581708024	-3.129770992366412	3.3893129770992365	1.3282442748091603	-0.04497751124437781	0.7616191904047975	0.9235382308845577	
1.7103255703402502E12	1.8478260869565217	-4.956521739130435	7.3478260869565215	3973.626373626373	128.0	128.0	-2.9596552800721265	33.188282035384425	30.2286267553123	498.7548880284892	19.51979094979655	-3.4045801526717554	4.2748091603053435	1.114503816793893	-0.04047976011994003	0.7691154422788605	0.9100449775112444	
1.7103255703597822E12	1.826086956521739	-4.956521739130435	7.271739130434782	3975.0915750915747	128.0	128.0	-2.9414085079918517	33.23177137753623	30.290362869544374	498.7414012839081	19.49238473086175	-2.9923664122137406	4.702290076335878	0.9923664122137404	-0.046476761619190406	0.775112443778111	0.9145427286356821	
1.710325570379314E12	1.8369565217391304	-4.913043478260869	7.271739130434782	3972.161172161172	128.0	128.0	-2.9487649141269823	33.2431665948828	30.29440168075582	498.74507948697567	19.360041542058177	-3.297709923664122	5.1603053435114505	1.4809160305343512	-0.047976011994003	0.7661169415292354	0.9235382308845577	
1.7103255703988457E12	1.8369565217391304	-4.923913043478261	7.239130434782608	3973.626373626373	128.0	128.0	-2.980209944273227	33.1338302056587	30.153620261385473	498.7183944843286	19.214067365415975	-3.7404580152671754	4.763358778625954	1.3740458015267174	-0.05697151424287856	0.7781109445277361	0.9295352323838081	
1.7103255704183777E12	1.858695652173913	-4.945652173913043	7.282608695652174	3973.626373626373	128.0	128.0	-3.034445409112622	33.0629346445721	30.028489235459478	498.7205581331919	19.164736171333335	-3.3740458015267176	4.519083969465648	1.4809160305343512	-0.05997001499250375	0.7541229385307346	0.9235382308845577	
1.7103255704379094E12	1.8804347826086956	-4.978260869565217	7.293478260869565	3950.18315018315	128.0	128.0	-3.0517546000188114	32.98287963663097	29.93112503661216	498.73851641875706	19.031599644613227	-3.5877862595419847	5.145038167938931	0.9465648854961831	-0.05697151424287856	0.760119940029985	0.9400299850074962	
1.7103255704574412E12	1.891304347826087	-4.989130434782608	7.282608695652174	3975.0915750915747	128.0	128.0	-3.049086099754107	32.96658014852764	29.917494048773534	498.729212728645	19.04097545635408	-3.6030534351145036	6.305343511450381	0.7786259541984732	-0.05397301349325337	0.7631184407796102	0.9370314842578711	
1.7103255704769731E12	1.8478260869565217	-4.956521739130435	7.33695652173913	3975.0915750915747	128.0	128.0	-3.0557934112302556	32.969392892049896	29.91359948081964	498.7191157006164	18.328269520791714	-3.3740458015267176	6.381679389312977	1.0229007633587786	-0.04047976011994003	0.7691154422788605	0.9415292353823088	
1.710325570496505E12	1.8695652173913042	-4.934782608695652	7.293478260869565	3972.161172161172	128.0	128.0	-3.0555770463439282	32.97530686560951	29.919729819265584	498.71861084921494	17.654509264768276	-3.969465648854962	8.16793893129771	0.7786259541984732	-0.038980509745127435	0.767616191904048	0.9250374812593702	
1.7103255705160366E12	1.8152173913043477	-4.967391304347826	7.184782608695652	3975.0915750915747	128.0	128.0	-3.066395290660297	32.98078810939647	29.914392818736175	498.73678549966644	16.53056580192635	-3.7557251908396947	8.473282442748092	0.6870229007633587	-0.047976011994003	0.7586206896551724	0.9310344827586207	
1.7103255705355686E12	1.75	-4.934782608695652	7.369565217391304	3975.0915750915747	128.0	128.0	-3.048148518580022	32.999395489620625	29.951246971040604	498.7431322029987	16.706831062654384	-5.267175572519084	6.259541984732824	1.297709923664122	-0.038980509745127435	0.760119940029985	0.9370314842578711	
1.7103255705551003E12	1.7934782608695652	-4.945652173913043	7.3478260869565215	3950.18315018315	128.0	128.0	-3.055937654487807	33.02651322204032	29.970575567552515	498.7469546493238	17.483364639683323	-3.6946564885496183	5.740458015267175	0.7786259541984732	-0.05697151424287856	0.7631184407796102	0.9250374812593702	
1.710325570574632E12	1.826086956521739	-5.0	7.391304347826087	3975.0915750915747	128.0	128.0	-3.0342290442262945	33.003506422460845	29.96927737823455	498.72459694440334	18.507924498072207	-3.3740458015267176	6.412213740458015	0.33587786259541985	-0.05247376311844078	0.7661169415292354	0.9205397301349325	
1.710325570594164E12	1.858695652173913	-4.978260869565217	7.315217391304348	3951.6483516483513	128.0	128.0	-3.026295665060957	32.99088513742508	29.964589472364125	498.71918782224515	19.697642886357652	-3.312977099236641	7.7251908396946565	-0.2595419847328244	-0.05247376311844078	0.7721139430284857	0.9280359820089955	
1.7103255706136958E12	1.826086956521739	-4.956521739130435	7.282608695652174	3975.0915750915747	128.0	128.0	-3.026295665060957	32.979345676820955	29.95305001176	498.7318091072809	20.852959257717046	-2.7022900763358777	8.412213740458014	0.0916030534351145	-0.04497751124437781	0.7661169415292354	0.9175412293853074	
1.7103255706332275E12	1.8478260869565217	-4.923913043478261	7.239130434782608	3975.0915750915747	128.0	128.0	-3.0115107311619203	32.968022581103156	29.956511849941236	498.71702417338184	21.62271340164106	-2.5038167938931295	8.244274809160306	0.12213740458015267	-0.05547226386806597	0.7661169415292354	0.9385307346326837	
1.7103255706527595E12	1.826086956521739	-4.913043478260869	7.228260869565217	3972.161172161172	128.0	128.0	-3.0254302055156477	32.95576190421127	29.930331698695625	498.7326024451974	21.83792434190802	-2.732824427480916	8.045801526717558	0.41221374045801523	-0.05247376311844078	0.7541229385307346	0.9235382308845577	
1.7103255706722913E12	1.826086956521739	-4.913043478260869	7.260869565217391	3975.0915750915747	128.0	128.0	-3.0117270960482476	32.9467467006143	29.93501960456605	498.7312321342507	22.059770472022354	-3.0229007633587783	7.633587786259541	0.183206106870229	-0.05697151424287856	0.760119940029985	0.9505247376311844	
1.710325570691823E12	1.858695652173913	-4.978260869565217	7.293478260869565	3973.626373626373	128.0	128.0	-3.0106452716166108	32.947828525045935	29.937183253429325	498.7229381469415	22.397083329806726	-2.6717557251908395	7.526717557251908	0.22900763358778625	-0.06146926536731634	0.7556221889055472	0.9250374812593702	
1.710325570711355E12	1.8695652173913042	-4.989130434782608	7.315217391304348	3973.626373626373	128.0	128.0	-2.990811823703268	33.015478612837626	30.02466678913436	498.73721822943907	22.14891280518923	-2.916030534351145	7.6183206106870225	0.6259541984732824	-0.05997001499250375	0.7766116941529235	0.9280359820089955	
1.7103255707308867E12	1.8478260869565217	-5.0	7.33695652173913	3975.0915750915747	128.0	128.0	-2.9789838765840386	33.03718722309914	30.058203346515104	498.7284915123572	21.90716110553278	-3.297709923664122	8.183206106870228	0.3969465648854962	-0.04947526236881559	0.775112443778111	0.9325337331334332	
1.7103255707504185E12	1.8478260869565217	-4.978260869565217	7.33695652173913	3951.6483516483513	128.0	128.0	-2.9697523081007375	33.032643560486264	30.06289125238553	498.73606428337865	21.183348439138943	-2.610687022900763	8.290076335877862	0.21374045801526717	-0.047976011994003	0.7796101949025487	0.9280359820089955	
1.7103255707699504E12	1.858695652173913	-4.956521739130435	7.326086956521739	3975.0915750915747	128.0	128.0	-2.9766038628344376	32.963911648262936	29.987307785428502	498.73195335053845	21.291098152529976	-2.564885496183206	7.740458015267175	0.2595419847328244	-0.05547226386806597	0.7766116941529235	0.9310344827586207	
1.7103255707894822E12	1.858695652173913	-4.923913043478261	7.293478260869565	3975.0915750915747	128.0	128.0	-3.0062458522612876	32.89820884444819	29.891962992186905	498.72697695815293	20.729631272510442	-2.5038167938931295	7.404580152671755	0.3511450381679389	-0.06296851574212893	0.7766116941529235	0.9385307346326837	
1.710325570809014E12	1.8369565217391304	-4.934782608695652	7.260869565217391	3970.6959706959706	128.0	128.0	-2.9947785132859366	32.87938509933771	29.884606586051774	498.7270490797817	20.75624415352871	-2.778625954198473	7.435114503816793	0.3969465648854962	-0.05697151424287856	0.7811094452773613	0.9250374812593702	
1.710325570828546E12	1.8369565217391304	-5.0	7.293478260869565	3975.0915750915747	128.0	128.0	-3.0032167438527044	32.887895451533254	29.88467870768055	498.7415455271656	20.796920752158258	-2.564885496183206	7.1603053435114505	0.7480916030534351	-0.04947526236881559	0.767616191904048	0.9190404797601199	
1.7103255708480776E12	1.8369565217391304	-5.010869565217392	7.326086956521739	3973.626373626373	128.0	128.0	-2.9361436290912186	32.759230465797245	29.823086836706025	498.7302224314478	21.082089672337734	-2.9618320610687023	7.129770992366412	0.47328244274809156	-0.05697151424287856	0.7631184407796102	0.9370314842578711	
1.7103255708676094E12	1.8369565217391304	-4.934782608695652	7.3478260869565215	3973.626373626373	128.0	128.0	-2.7693984233615905	33.358200592780186	30.588802169418596	498.7415455271656	20.737420408418227	-3.236641221374046	6.763358778625954	0.6717557251908397	-0.05697151424287856	0.767616191904048	0.9370314842578711	
1.7103255708871414E12	1.8369565217391304	-4.9021739130434785	7.358695652173913	3975.0915750915747	128.0	128.0	-3.2637921886196364	33.980826614001586	30.71703442538195	498.7416897704232	20.3517139377253	-2.9923664122137406	6.717557251908397	0.7022900763358778	-0.038980509745127435	0.767616191904048	0.9295352323838081	
1.710325570906673E12	1.8369565217391304	-4.934782608695652	7.293478260869565	3950.18315018315	128.0	128.0	-3.1544557993955373	33.12560833997826	29.97115254058272	498.73584791849237	20.619934275142466	-3.0381679389312977	6.854961832061068	0.16793893129770993	-0.04947526236881559	0.775112443778111	0.9295352323838081	
1.7103255709262048E12	1.8695652173913042	-4.858695652173913	7.228260869565217	3975.0915750915747	128.0	128.0	-2.9678771457525666	33.00516521992269	30.037288074170124	498.72401997137314	19.811450816565852	-0.916030534351145	2.7022900763358777	1.8473282442748091	-0.041979010494752625	0.767616191904048	0.9220389805097451	
1.7103255709457368E12	1.7065217391304348	-4.989130434782608	7.510869565217391	3973.626373626373	128.0	128.0	-2.9514334143916865	32.977831122616664	30.02639770822498	498.73491033731824	19.537388627217847	-7.450381679389313	7.633587786259541	-0.6870229007633587	-0.047976011994003	0.7766116941529235	0.9340329835082458	
1.7103255709652686E12	1.8804347826086956	-5.0	7.076086956521739	3970.6959706959706	128.0	128.0	-2.9323211827661018	32.96218072917232	30.029859546406218	498.7082974563	20.3654170471927	1.9389312977099236	6.763358778625954	0.4580152671755725	-0.06296851574212893	0.7586206896551724	0.9415292353823088	
1.7103255709848003E12	1.8043478260869565	-4.956521739130435	7.271739130434782	3973.626373626373	128.0	128.0	-2.9163823028066522	32.98713481272874	30.07075250992209	498.7202696466768	20.752565950461143	-5.343511450381679	9.34351145038168	-0.5801526717557252	-0.05547226386806597	0.7721139430284857	0.9280359820089955	
1.7103255710043323E12	1.7826086956521738	-4.945652173913043	7.25	3973.626373626373	128.0	128.0	-2.903688896142113	32.996654867727145	30.092965971585034	498.71082171330715	20.023488405166674	-3.32824427480916	7.3893129770992365	0.0	-0.05397301349325337	0.7706146926536731	0.9370314842578711	
1.710325571023864E12	1.8152173913043477	-4.978260869565217	7.3478260869565215	3973.626373626373	128.0	128.0	-2.885442124061838	33.044976359006924	30.159534234945088	498.7049077397475	20.136430875829564	-4.442748091603053	5.908396946564885	0.21374045801526717	-0.05397301349325337	0.7706146926536731	0.9400299850074962	
1.7103255710433958E12	1.8695652173913042	-4.945652173913043	7.326086956521739	3973.626373626373	128.0	128.0	-2.868132933155648	33.086085687409124	30.217952754253478	498.71904357898757	19.89403008151413	-3.0229007633587783	5.099236641221374	1.0687022900763359	-0.04947526236881559	0.767616191904048	0.9370314842578711	
1.7103255710629277E12	1.8804347826086956	-4.945652173913043	7.33695652173913	3948.7179487179483	128.0	128.0	-2.836110929979197	33.167222519781895	30.331111589802696	498.737578837583	19.781736705510227	-3.3740458015267176	5.206106870229007	0.9618320610687022	-0.06146926536731634	0.767616191904048	0.9475262368815592	
1.7103255710824595E12	1.8478260869565217	-4.978260869565217	7.315217391304348	3975.0915750915747	128.0	128.0	-2.8120944275968585	33.22693922840825	30.414844800811387	498.71594234895025	19.849242550044366	-2.6259541984732824	5.786259541984733	0.41221374045801523	-0.05247376311844078	0.7766116941529235	0.9310344827586207	
1.7103255711019912E12	1.858695652173913	-4.978260869565217	7.271739130434782	3975.0915750915747	128.0	128.0	-2.7959391827510816	33.29177657267768	30.495837389926603	498.71760114641205	20.42845135074274	-2.778625954198473	5.877862595419847	0.6412213740458015	-0.05697151424287856	0.760119940029985	0.9250374812593702	
1.7103255711215232E12	1.826086956521739	-4.945652173913043	7.304347826086956	3969.230769230769	128.0	128.0	-2.813248373657271	33.25052300101793	30.437274627360658	498.72690483652417	20.068203815007667	-2.9923664122137406	5.9541984732824424	0.916030534351145	-0.05547226386806597	0.7691154422788605	0.9415292353823088	
1.710325571141055E12	1.8369565217391304	-4.956521739130435	7.282608695652174	3975.0915750915747	128.0	128.0	-2.858901364672347	33.148038166527535	30.289136801855186	498.7182502410711	19.770413609792424	-3.145038167938931	5.679389312977099	1.1755725190839694	-0.04947526236881559	0.760119940029985	0.9325337331334332	
1.7103255711605867E12	1.858695652173913	-4.923913043478261	7.293478260869565	3975.0915750915747	128.0	128.0	-2.89979432818822	33.03495145260709	30.13515712441887	498.70274409088427	19.580805847740873	-2.8091603053435112	5.7251908396946565	1.465648854961832	-0.037481259370314844	0.7691154422788605	0.9340329835082458	
1.7103255711801187E12	1.891304347826087	-4.923913043478261	7.304347826086956	3975.0915750915747	128.0	128.0	-2.9084489236413154	32.991534232084064	30.08308530844275	498.7082253346712	19.579435536794133	-2.6259541984732824	6.2748091603053435	0.916030534351145	-0.06146926536731634	0.7811094452773613	0.9250374812593702	
1.7103255711996504E12	1.8369565217391304	-4.978260869565217	7.271739130434782	3975.0915750915747	128.0	128.0	-2.9139301674282754	32.977614757730336	30.063684590302064	498.7109659565647	20.590436528973168	-2.198473282442748	6.900763358778626	0.7786259541984732	-0.05697151424287856	0.7556221889055472	0.9325337331334332	
1.7103255712191821E12	1.8478260869565217	-4.967391304347826	7.369565217391304	3951.6483516483513	128.0	128.0	-2.9155168432613427	32.99001967787977	30.074502834618432	498.73166486402334	21.03485000548959	-2.748091603053435	6.366412213740458	0.9007633587786259	-0.07796101949025487	0.7721139430284857	0.9385307346326837	
1.710325571238714E12	1.826086956521739	-5.0	7.184782608695652	3975.0915750915747	128.0	128.0	-2.9203489923893207	32.99694335424225	30.07659436185293	498.72632786349396	21.604971480962217	-1.7557251908396947	6.259541984732824	0.6259541984732824	-0.05697151424287856	0.7631184407796102	0.9325337331334332	
1.7103255712582458E12	1.8478260869565217	-4.956521739130435	7.315217391304348	3973.626373626373	128.0	128.0	-2.909674991330504	33.00783372018739	30.09815872885689	498.7174569031545	21.280135664956056	-2.564885496183206	5.450381679389313	0.8549618320610687	-0.06596701649175413	0.7811094452773613	0.9190404797601199	
1.7103255712777776E12	1.8369565217391304	-4.913043478260869	7.326086956521739	3969.230769230769	128.0	128.0	-2.9142907755721543	33.01778650495845	30.1034957293863	498.7074319967547	21.662524540725297	-4.33587786259542	6.061068702290076	0.732824427480916	-0.04947526236881559	0.767616191904048	0.9400299850074962	
1.7103255712973096E12	1.8804347826086956	-4.923913043478261	7.304347826086956	3973.626373626373	128.0	128.0	-2.897125827923516	33.01836347798866	30.121237650065144	498.6975513336124	21.322254696161117	-2.091603053435114	5.358778625954198	0.9007633587786259	-0.05697151424287856	0.7706146926536731	0.9220389805097451	
1.7103255713168413E12	1.8695652173913042	-4.945652173913043	7.326086956521739	3973.626373626373	128.0	128.0	-2.8999385714457717	33.0224022892001	30.122463717754332	498.6989937661879	21.588022898199906	-3.145038167938931	6.366412213740458	0.7938931297709924	-0.05247376311844078	0.7766116941529235	0.9205397301349325	
1.710325571336373E12	1.858695652173913	-4.967391304347826	7.326086956521739	3973.626373626373	128.0	128.0	-2.8888318406143	33.013964058633334	30.125132218019036	498.68341549437235	21.7971756216497	-2.8854961832061066	6.687022900763359	0.732824427480916	-0.05547226386806597	0.7796101949025487	0.9340329835082458	
1.710325571355905E12	1.8478260869565217	-4.967391304347826	7.3478260869565215	3973.626373626373	128.0	128.0	-2.8787348125856895	32.99607789469694	30.11734308211125	498.70368167205834	22.06532383743809	-3.0534351145038165	6.931297709923664	0.549618320610687	-0.041979010494752625	0.7781109445277361	0.9370314842578711	
1.7103255713754368E12	1.858695652173913	-4.945652173913043	7.326086956521739	3948.7179487179483	128.0	128.0	-2.891933070651659	32.99102938068263	30.099096310030976	498.7062059290655	22.11479927477828	-2.6412213740458013	6.931297709923664	0.7022900763358778	-0.05547226386806597	0.7691154422788605	0.9385307346326837	
1.7103255713949685E12	1.8369565217391304	-4.945652173913043	7.304347826086956	3975.0915750915747	128.0	128.0	-2.889264570386955	32.97948992007851	30.090225349691554	498.71615871383653	22.138022439244086	-2.854961832061069	6.65648854961832	0.8549618320610687	-0.06596701649175413	0.767616191904048	0.9370314842578711	
1.7103255714145005E12	1.8369565217391304	-4.934782608695652	7.304347826086956	3973.626373626373	128.0	128.0	-2.9069343694370233	32.975234743980735	30.068300374543714	498.72127934947963	22.104341638605792	-3.068702290076336	6.824427480916031	0.7175572519083969	-0.04497751124437781	0.7766116941529235	0.9205397301349325	
1.7103255714340322E12	1.8369565217391304	-4.934782608695652	7.282608695652174	3967.7655677655675	128.0	128.0	-2.8850093942891832	32.95258855254514	30.067579158255956	498.7115429295949	22.328712025727278	-2.8396946564885495	6.7328244274809155	0.8091603053435115	-0.05997001499250375	0.7586206896551724	0.9235382308845577	
1.710325571453564E12	1.8369565217391304	-4.956521739130435	7.315217391304348	3975.0915750915747	128.0	128.0	-2.899433720044341	32.96030556682415	30.060871846779808	498.7216399576235	22.675040087108624	-3.2519083969465647	6.534351145038167	0.8244274809160305	-0.041979010494752625	0.7781109445277361	0.9430284857571214	
1.710325571473096E12	1.8478260869565217	-4.956521739130435	7.293478260869565	3973.626373626373	128.0	128.0	-2.8855142456906138	32.97494625746563	30.08943201177502	498.711182321451	22.55430848053795	-3.0381679389312977	6.122137404580153	0.9312977099236641	-0.05247376311844078	0.7796101949025487	0.9280359820089955	
1.7103255714926277E12	1.858695652173913	-4.978260869565217	7.304347826086956	3973.626373626373	128.0	128.0	-2.872532352510971	33.03769207450057	30.1651597219896	498.7056289560353	22.680016479494153	-2.900763358778626	6.244274809160305	0.732824427480916	-0.05997001499250375	0.7766116941529235	0.9205397301349325	
1.7103255715121594E12	1.858695652173913	-4.956521739130435	7.326086956521739	3975.0915750915747	128.0	128.0	-2.8608486486492932	33.05738127915636	30.19653263050707	498.70058044202096	22.62693496071517	-2.916030534351145	6.458015267175572	0.9007633587786259	-0.05997001499250375	0.7661169415292354	0.9340329835082458	
1.7103255715316914E12	1.8804347826086956	-4.934782608695652	7.326086956521739	3951.6483516483513	128.0	128.0	-2.8631565407701185	33.04778910252918	30.184632561759063	498.6958204145218	23.010261417658498	-3.32824427480916	6.671755725190839	0.9312977099236641	-0.05697151424287856	0.775112443778111	0.9325337331334332	
1.7103255715512231E12	1.8695652173913042	-4.956521739130435	7.282608695652174	3975.0915750915747	128.0	128.0	-2.8738305418289354	32.93008660436709	30.056256062538157	498.70570107766406	23.07625270798835	-3.5114503816793894	6.961832061068702	0.8702290076335878	-0.07496251874062969	0.7661169415292354	0.9340329835082458	
1.710325571570755E12	1.8478260869565217	-4.956521739130435	7.326086956521739	3973.626373626373	128.0	128.0	-2.8780135962979316	32.91897987353562	30.04096627723769	498.69589253615055	23.406353402895142	-2.9618320610687023	6.717557251908397	0.7480916030534351	-0.06296851574212893	0.7721139430284857	0.9235382308845577	
1.7103255715902869E12	1.858695652173913	-4.956521739130435	7.293478260869565	3967.7655677655675	128.0	128.0	-2.8780857179267074	32.91566227861193	30.037576560685228	498.67569848009333	23.583339879910934	-2.763358778625954	6.6106870229007635	0.5343511450381679	-0.04497751124437781	0.7721139430284857	0.9415292353823088	
1.7103255716098186E12	1.8478260869565217	-4.956521739130435	7.282608695652174	3975.0915750915747	128.0	128.0	-2.875345096033227	32.90102158797045	30.025676491937222	498.6805306292213	23.071348437231595	-2.8702290076335877	6.442748091603053	0.7175572519083969	-0.05547226386806597	0.7616191904047975	0.9280359820089955	
1.7103255716293503E12	1.8695652173913042	-4.923913043478261	7.293478260869565	3973.626373626373	128.0	128.0	-2.82132599608016	32.783535454694686	29.962209458614524	498.6906997788787	22.834068278559243	-2.9618320610687023	6.748091603053435	0.6564885496183206	-0.05247376311844078	0.7766116941529235	0.9280359820089955	
1.7103255716488823E12	1.8695652173913042	-4.934782608695652	7.33695652173913	3975.0915750915747	128.0	128.0	-2.7526662054856073	34.2852520090642	31.532585803578595	498.70613380743674	21.80676779827688	-3.1755725190839694	6.122137404580153	0.7175572519083969	-0.046476761619190406	0.7706146926536731	0.9370314842578711	
1.710325571668414E12	1.8695652173913042	-4.913043478260869	7.423913043478261	3975.0915750915747	128.0	128.0	-3.165346165340682	34.10379399106431	30.938447825723628	498.7220726873962	22.134055749661417	-3.1908396946564883	6.366412213740458	1.0534351145038168	-0.047976011994003	0.7541229385307346	0.9385307346326837	
1.7103255716879458E12	1.9456521739130435	-5.054347826086956	7.130434782608695	3951.6483516483513	128.0	128.0	-2.9279938850395544	33.16866495235741	30.240671067317855	498.70728775349716	22.915782083962213	-2.8854961832061066	6.961832061068702	0.5801526717557252	-0.05997001499250375	0.7691154422788605	0.9340329835082458	
1.7103255717074778E12	1.8152173913043477	-4.826086956521739	7.521739130434782	3975.0915750915747	128.0	128.0	-2.8685656629283027	33.067045577412316	30.198479914484015	498.69134887353766	21.998755574078032	-2.2748091603053435	3.0534351145038165	2.1526717557251906	-0.05997001499250375	0.7691154422788605	0.9310344827586207	
1.7103255717270095E12	1.8152173913043477	-5.032608695652174	7.3478260869565215	3973.626373626373	128.0	128.0	-2.844981890318619	33.02947020882013	30.18448831850151	498.7213514711084	22.66241880207286	-6.3206106870229	7.969465648854961	0.15267175572519084	-0.06146926536731634	0.7556221889055472	0.9370314842578711	
1.7103255717465413E12	1.8695652173913042	-4.934782608695652	7.1521739130434785	3966.300366300366	128.0	128.0	-2.8322163620253042	33.02665746529787	30.19444110327257	498.7310157693644	22.831832508067194	1.1603053435114503	7.526717557251908	0.5801526717557252	-0.041979010494752625	0.767616191904048	0.9325337331334332	
1.7103255717660732E12	1.826086956521739	-4.923913043478261	7.33695652173913	3975.0915750915747	128.0	128.0	-2.8273842128973263	33.04454362923427	30.217159416336944	498.714716281261	22.937634937481278	-6.702290076335878	10.045801526717558	0.13740458015267176	-0.05397301349325337	0.7631184407796102	0.9430284857571214	
1.710325571785605E12	1.8152173913043477	-4.923913043478261	7.271739130434782	3973.626373626373	128.0	128.0	-2.81447444134646	33.06041038756495	30.245935946218488	498.7202696466768	22.27267352016849	-2.0610687022900764	7.206106870229007	0.32061068702290074	-0.047976011994003	0.7766116941529235	0.9130434782608695	
1.710325571805137E12	1.8695652173913042	-4.967391304347826	7.380434782608695	3966.300366300366	128.0	128.0	-2.8116616978242037	33.08608568740913	30.274423989584925	498.737578837583	21.921585431287937	-4.824427480916031	5.679389312977099	0.916030534351145	-0.08095952023988005	0.7706146926536731	0.9295352323838081	
1.7103255718246687E12	1.891304347826087	-4.956521739130435	7.3478260869565215	3973.626373626373	128.0	128.0	-2.774663302262223	33.14738907186855	30.372725769606326	498.7296454584176	21.50876122817531	-3.16030534351145	4.595419847328244	1.0534351145038168	-0.06746626686656672	0.7721139430284857	0.9310344827586207	
1.7103255718442004E12	1.8478260869565217	-4.989130434782608	7.380434782608695	3948.7179487179483	128.0	128.0	-2.7511516512813152	33.204076672086316	30.452925020805004	498.7339006345154	21.27270713719215	-3.5877862595419847	5.236641221374046	0.8854961832061068	-0.05697151424287856	0.7631184407796102	0.9145427286356821	
1.7103255718637324E12	1.858695652173913	-4.967391304347826	7.293478260869565	3975.0915750915747	128.0	128.0	-2.7034792546605177	33.29047838335972	30.5869991286992	498.71875509247246	21.7721494164645	-2.763358778625954	5.480916030534351	0.732824427480916	-0.04947526236881559	0.7631184407796102	0.9295352323838081	
1.7103255718832642E12	1.858695652173913	-4.913043478260869	7.282608695652174	3973.626373626373	128.0	128.0	-2.721653905112017	33.34529082122932	30.623636916117302	498.7225054171688	21.853286248837264	-3.7862595419847325	6.244274809160305	0.9770992366412213	-0.041979010494752625	0.7706146926536731	0.9400299850074962	
1.710325571902796E12	1.8369565217391304	-4.923913043478261	7.293478260869565	3964.8351648351645	128.0	128.0	-2.7290103112471478	33.30656150657672	30.577551195329573	498.7199811601617	21.768471213396936	-3.114503816793893	6.137404580152672	1.0687022900763359	-0.041979010494752625	0.7706146926536731	0.9220389805097451	
1.710325571922328E12	1.858695652173913	-4.913043478260869	7.304347826086956	3975.0915750915747	128.0	128.0	-2.785842154722471	33.14262904436935	30.356786889646877	498.71767326804087	22.016785981271983	-3.114503816793893	6.259541984732824	1.1755725190839694	-0.05697151424287856	0.760119940029985	0.9220389805097451	
1.7103255719418596E12	1.8804347826086956	-4.945652173913043	7.315217391304348	3973.626373626373	128.0	128.0	-2.8180084011564737	33.076926240554606	30.25891783939813	498.7270490797817	21.741497724234787	-2.9923664122137406	6.625954198473282	0.8702290076335878	-0.05697151424287856	0.7631184407796102	0.9400299850074962	
1.7103255719613914E12	1.8804347826086956	-4.934782608695652	7.326086956521739	3975.0915750915747	128.0	128.0	-2.8272399696397748	33.01648831564049	30.189248346000713	498.72373148485804	22.064242013006453	-2.916030534351145	6.488549618320611	0.7022900763358778	-0.06146926536731634	0.7781109445277361	0.9370314842578711	
1.7103255719809233E12	1.8369565217391304	-4.989130434782608	7.326086956521739	3973.626373626373	128.0	128.0	-2.8451261335761706	33.01930105916274	30.174174925586573	498.71680780849556	22.01736295430219	-3.0076335877862594	6.824427480916031	0.5190839694656488	-0.04947526236881559	0.760119940029985	0.9295352323838081	
1.710325572000455E12	1.8478260869565217	-4.989130434782608	7.358695652173913	3948.7179487179483	128.0	128.0	-2.8291151319879453	33.02023864033683	30.191123508348884	498.7038980369447	22.27130320922175	-2.2442748091603053	6.2748091603053435	0.5801526717557252	-0.04497751124437781	0.7661169415292354	0.9235382308845577	
1.7103255720199868E12	1.8695652173913042	-4.989130434782608	7.195652173913043	3975.0915750915747	128.0	128.0	-2.8294036185030484	33.017570140072124	30.188166521569077	498.7110380781935	21.9479098257911	-2.687022900763359	6.5038167938931295	1.099236641221374	-0.047976011994003	0.7436281859070465	0.9385307346326837	
1.7103255720395188E12	1.8152173913043477	-4.934782608695652	7.369565217391304	3975.0915750915747	128.0	128.0	-2.824715712632622	33.024926546207254	30.200210833574634	498.7093071591029	21.426614692999685	-3.49618320610687	6.229007633587786	1.114503816793893	-0.06296851574212893	0.7796101949025487	0.9340329835082458	
1.7103255720590505E12	1.8478260869565217	-4.913043478260869	7.304347826086956	3966.300366300366	128.0	128.0	-2.8295478617606	33.039134507076085	30.209586645315486	498.7090186725878	22.29784396861124	-4.580152671755725	7.0534351145038165	1.0229007633587786	-0.05697151424287856	0.7706146926536731	0.9295352323838081	
1.7103255720785823E12	1.858695652173913	-4.913043478260869	7.358695652173913	3975.0915750915747	128.0	128.0	-2.8096422922184816	33.02391684340439	30.214274551185913	498.70310469902813	22.29697850906593	-2.198473282442748	6.183206106870228	0.9618320610687022	-0.06896551724137931	0.767616191904048	0.9250374812593702	
1.7103255720981143E12	1.858695652173913	-4.945652173913043	7.293478260869565	3975.0915750915747	128.0	128.0	-2.8087047110443963	33.02564776249501	30.216943051450617	498.70526834789143	22.580632875041115	-3.4045801526717554	6.885496183206107	0.549618320610687	-0.05397301349325337	0.7631184407796102	0.9325337331334332	
1.710325572117646E12	1.8369565217391304	-4.978260869565217	7.326086956521739	3975.0915750915747	128.0	128.0	-2.811228968051549	33.01850772124621	30.20727875319466	498.69957073921813	22.435524157944222	-2.4732824427480917	6.900763358778626	0.47328244274809156	-0.05997001499250375	0.7616191904047975	0.9310344827586207	
1.7103255721371777E12	1.8478260869565217	-4.967391304347826	7.315217391304348	3975.0915750915747	128.0	128.0	-2.793414925743929	33.003867030604724	30.210452104860796	498.6937288872873	22.536061708457677	-3.4198473282442747	6.687022900763359	0.5343511450381679	-0.05247376311844078	0.7766116941529235	0.9490254872563718	
1.7103255721567097E12	1.858695652173913	-4.923913043478261	7.33695652173913	3951.6483516483513	128.0	128.0	-2.8034398321437637	32.990308164394875	30.186868332251112	498.7132738486855	22.44324117222323	-3.0381679389312977	6.809160305343511	1.0076335877862594	-0.05247376311844078	0.7691154422788605	0.9385307346326837	
1.7103255721762415E12	1.8369565217391304	-4.934782608695652	7.293478260869565	3975.0915750915747	128.0	128.0	-2.80675742706745	32.97855233890442	30.171794911836972	498.69928225270303	22.485360203428293	-3.450381679389313	7.038167938931298	0.564885496183206	-0.06296851574212893	0.7691154422788605	0.9340329835082458	
1.7103255721957732E12	1.8804347826086956	-4.923913043478261	7.293478260869565	3973.626373626373	128.0	128.0	-2.791034911994328	32.966868635042744	30.175833723048417	498.69473859009014	22.516949476832092	-2.900763358778626	6.900763358778626	0.732824427480916	-0.047976011994003	0.7691154422788605	0.9175412293853074	
1.7103255722153052E12	1.8695652173913042	-4.934782608695652	7.304347826086956	3966.300366300366	128.0	128.0	-2.793775533887808	32.9607382965968	30.166962762708994	498.7059174425504	22.82195184492491	-3.1755725190839694	6.717557251908397	0.6870229007633587	-0.05397301349325337	0.767616191904048	0.9325337331334332	
1.710325572234837E12	1.8695652173913042	-4.956521739130435	7.33695652173913	3975.0915750915747	128.0	128.0	-2.7994731425610953	32.962036485914766	30.16256334335367	498.6949549549765	22.615756108254924	-3.0229007633587783	6.259541984732824	1.0534351145038168	-0.037481259370314844	0.7721139430284857	0.9235382308845577	
1.7103255722543687E12	1.8695652173913042	-4.989130434782608	7.326086956521739	3973.626373626373	128.0	128.0	-2.7810100055944926	32.94140970008489	30.160399694490398	498.70728775349716	22.676915249456794	-2.900763358778626	6.458015267175572	0.6717557251908397	-0.047976011994003	0.7616191904047975	0.9340329835082458	
1.7103255722739006E12	1.858695652173913	-4.978260869565217	7.315217391304348	3973.626373626373	128.0	128.0	-2.781586978624699	32.92849992853402	30.146912949909325	498.69351252240097	22.59130687609993	-3.0381679389312977	6.259541984732824	0.6412213740458015	-0.04497751124437781	0.7766116941529235	0.9340329835082458	
1.7103255722934324E12	1.8695652173913042	-4.945652173913043	7.315217391304348	3973.626373626373	128.0	128.0	-2.7897367226763636	32.93318783440445	30.143451111728087	498.70187863133896	22.714274253162653	-3.0534351145038165	6.458015267175572	0.6870229007633587	-0.05997001499250375	0.7616191904047975	0.9415292353823088	
1.710325572312964E12	1.8695652173913042	-4.923913043478261	7.315217391304348	3951.6483516483513	128.0	128.0	-2.789880965933915	32.92193686031543	30.132055894381512	498.68781491372766	22.447135740177124	-3.0534351145038165	6.519083969465648	0.9465648854961831	-0.05247376311844078	0.7796101949025487	0.9280359820089955	
1.710325572332496E12	1.8804347826086956	-4.9021739130434785	7.282608695652174	3973.626373626373	128.0	128.0	-2.776754829496721	32.93614482118426	30.159389991687537	498.70000346899076	22.535773221942573	-3.2213740458015265	6.763358778625954	0.7480916030534351	-0.05397301349325337	0.7706146926536731	0.9250374812593702	
1.7103255723520278E12	1.858695652173913	-4.923913043478261	7.282608695652174	3973.626373626373	128.0	128.0	-2.7810821272232684	33.005742192952894	30.224660065729626	498.6961089010369	22.7001384139226	-3.1755725190839694	6.549618320610687	0.6870229007633587	-0.047976011994003	0.7766116941529235	0.9235382308845577	
1.7103255723715596E12	1.858695652173913	-4.956521739130435	7.326086956521739	3964.8351648351645	128.0	128.0	-2.7702638829069	33.03812480427323	30.267860921366328	498.7032489422857	22.513776125165958	-2.8244274809160306	6.641221374045801	0.5954198473282443	-0.05547226386806597	0.7586206896551724	0.9235382308845577	
1.7103255723910916E12	1.8478260869565217	-4.967391304347826	7.326086956521739	3973.626373626373	128.0	128.0	-2.7411267448814804	33.00429976037738	30.2631730154959	498.67627545312354	22.715933050624496	-3.16030534351145	6.625954198473282	0.9312977099236641	-0.04497751124437781	0.7721139430284857	0.9235382308845577	
1.7103255724106233E12	1.8478260869565217	-4.978260869565217	7.33695652173913	3973.626373626373	128.0	128.0	-2.771922680368743	32.916671981414794	30.14474930104605	498.6862282378946	22.682901344645185	-3.0839694656488548	6.702290076335878	0.8854961832061068	-0.04497751124437781	0.7766116941529235	0.9415292353823088	
1.710325572430155E12	1.8478260869565217	-4.945652173913043	7.293478260869565	3969.230769230769	128.0	128.0	-2.7859142763512468	32.90181492588698	30.115900649535735	498.6933682791434	22.90849779945586	-2.916030534351145	6.748091603053435	0.7938931297709924	-0.046476761619190406	0.7781109445277361	0.9250374812593702	
1.710325572449687E12	1.8695652173913042	-4.934782608695652	7.293478260869565	3975.0915750915747	128.0	128.0	-2.8099307787335848	32.91400348115009	30.104072702416506	498.6968301173246	22.784737084476603	-3.0229007633587783	6.931297709923664	0.8702290076335878	-0.046476761619190406	0.767616191904048	0.9145427286356821	
1.7103255724692188E12	1.8369565217391304	-4.923913043478261	7.271739130434782	3951.6483516483513	128.0	128.0	-2.8004828453639563	32.90578161546965	30.105298770105694	498.7020228745965	22.974128481641827	-3.129770992366412	6.900763358778626	0.6106870229007634	-0.046476761619190406	0.7706146926536731	0.9475262368815592	
1.7103255724887505E12	1.891304347826087	-4.9021739130434785	7.326086956521739	3975.0915750915747	128.0	128.0	-2.657465655501563	32.84015093328368	30.182685277782117	498.69913800944545	22.87077818760612	-3.297709923664122	6.65648854961832	0.8854961832061068	-0.041979010494752625	0.7526236881559221	0.9370314842578711	
1.7103255725082825E12	1.858695652173913	-4.923913043478261	7.358695652173913	3973.626373626373	128.0	128.0	-2.658691723190752	34.137186305187505	31.478494581996753	498.6955319280067	22.478003797293162	-3.3740458015267176	6.198473282442748	0.732824427480916	-0.04947526236881559	0.775112443778111	0.9325337331334332	
1.7103255725278142E12	1.8695652173913042	-4.934782608695652	7.4021739130434785	3966.300366300366	128.0	128.0	-3.0690637909250014	34.17750229567317	31.108438504748168	498.70966776724674	22.52452224785355	-3.145038167938931	6.6106870229007635	1.1603053435114503	-0.06296851574212893	0.7721139430284857	0.9280359820089955	
1.710325572547346E12	1.934782608695652	-5.043478260869565	7.0978260869565215	3975.0915750915747	128.0	128.0	-2.8529152694839564	33.16267885716902	30.30976358768506	498.7043307667173	23.399429726532667	-3.145038167938931	6.931297709923664	0.7938931297709924	-0.06746626686656672	0.7721139430284857	0.9385307346326837	
1.710325572566878E12	1.8369565217391304	-4.83695652173913	7.532608695652174	3975.0915750915747	128.0	128.0	-2.797093128811494	33.05081821093777	30.253725082126273	498.6933682791434	22.47187345884722	-2.0610687022900764	2.946564885496183	1.9236641221374045	-0.05247376311844078	0.7766116941529235	0.9340329835082458	
1.7103255725864097E12	1.8369565217391304	-5.032608695652174	7.260869565217391	3970.6959706959706	128.0	128.0	-2.7662250716954557	33.00256884128677	30.236343769591308	498.6878870353564	23.136113659872255	-6.580152671755725	8.106870229007633	0.21374045801526717	-0.041979010494752625	0.7706146926536731	0.9325337331334332	
1.7103255726059414E12	1.8695652173913042	-4.923913043478261	7.163043478260869	3973.626373626373	128.0	128.0	-2.7591571520754283	33.008266449960054	30.249109297884623	498.6837761025162	22.988552807396985	2.1068702290076335	7.236641221374046	0.732824427480916	-0.038980509745127435	0.767616191904048	0.9220389805097451	
1.7103255726254734E12	1.8369565217391304	-4.923913043478261	7.326086956521739	3950.18315018315	128.0	128.0	-2.7400449204498436	33.01930105916274	30.279256138712903	498.6614905192245	22.905612934304827	-7.343511450381679	10.274809160305344	-0.47328244274809156	-0.04047976011994003	0.7541229385307346	0.9310344827586207	
1.7103255726450051E12	1.858695652173913	-4.934782608695652	7.304347826086956	3973.626373626373	128.0	128.0	-2.732977000829816	33.03711510147036	30.30413810064055	498.6823336699407	22.20011916162004	-1.6793893129770991	7.1603053435114505	0.7786259541984732	-0.05697151424287856	0.7631184407796102	0.9400299850074962	
1.7103255726645369E12	1.8695652173913042	-4.989130434782608	7.413043478260869	3973.626373626373	128.0	128.0	-2.707229579356859	33.06041038756494	30.353180808208087	498.66704388464024	21.71474059995897	-4.778625954198473	6.045801526717557	0.5801526717557252	-0.0704647676161919	0.7661169415292354	0.9340329835082458	
1.7103255726840688E12	1.891304347826087	-4.978260869565217	7.326086956521739	3964.8351648351645	128.0	128.0	-2.6912185777686335	33.12344469111498	30.432226113346353	498.6718760337682	21.303286707793085	-2.4580152671755724	4.641221374045801	1.1908396946564885	-0.05997001499250375	0.7796101949025487	0.9280359820089955	
1.7103255727036006E12	1.858695652173913	-4.989130434782608	7.358695652173913	3973.626373626373	128.0	128.0	-2.652345019858482	33.17118920936456	30.51884418950608	498.6779342505854	21.10733224240926	-3.7557251908396947	5.572519083969466	0.8091603053435115	-0.05547226386806597	0.7616191904047975	0.9385307346326837	
1.7103255727231323E12	1.8478260869565217	-4.967391304347826	7.271739130434782	3973.626373626373	128.0	128.0	-2.6325115719451397	33.27937165252825	30.646860080583107	498.6746166556617	21.914805998183013	-2.6259541984732824	5.908396946564885	0.6717557251908397	-0.06146926536731634	0.7706146926536731	0.9220389805097451	
1.7103255727426643E12	1.8369565217391304	-4.9021739130434785	7.282608695652174	3973.626373626373	128.0	128.0	-2.6338818828918797	33.31947127812759	30.685589395235706	498.6785112236156	21.9684644899922	-3.3740458015267176	6.7328244274809155	0.7938931297709924	-0.06596701649175413	0.7706146926536731	0.9250374812593702	
1.710325572762196E12	1.858695652173913	-4.891304347826087	7.271739130434782	3967.7655677655675	128.0	128.0	-2.6642450886064877	33.25759092063796	30.59334583203147	498.6911325086514	22.169539591019106	-3.541984732824427	6.305343511450381	1.282442748091603	-0.05397301349325337	0.775112443778111	0.9295352323838081	
1.7103255727817278E12	1.8695652173913042	-4.9021739130434785	7.315217391304348	3951.6483516483513	128.0	128.0	-2.6998010515929525	33.143133895770774	30.443332844177824	498.69192584656787	21.910839308600345	-3.114503816793893	6.152671755725191	1.1450381679389312	-0.041979010494752625	0.775112443778111	0.9295352323838081	
1.7103255728012598E12	1.891304347826087	-4.934782608695652	7.326086956521739	3973.626373626373	128.0	128.0	-2.7305248654514394	33.06221342828434	30.331688562832902	498.7016622664526	21.679905853260262	-2.9618320610687023	6.2748091603053435	1.3129770992366412	-0.04947526236881559	0.7631184407796102	0.9220389805097451	
1.7103255728207915E12	1.8478260869565217	-4.978260869565217	7.369565217391304	3973.626373626373	128.0	128.0	-2.7435067586310815	32.99182271859917	30.24831595996809	498.6954598063779	21.973008152605075	-3.3740458015267176	6.793893129770992	0.4580152671755725	-0.06596701649175413	0.767616191904048	0.9325337331334332	
1.7103255728403232E12	1.8478260869565217	-5.0	7.326086956521739	3964.8351648351645	128.0	128.0	-2.767090531240765	32.99304878628836	30.225958255047594	498.69733496872607	21.927138796703673	-2.900763358778626	6.763358778625954	0.4580152671755725	-0.05997001499250375	0.7766116941529235	0.9385307346326837	
1.7103255728598552E12	1.826086956521739	-5.0	7.3478260869565215	3975.0915750915747	128.0	128.0	-2.7497092187057994	32.97718202795768	30.227472809251886	498.69235857634055	22.0959755296678	-2.6259541984732824	6.870229007633587	0.6106870229007634	-0.06296851574212893	0.7871064467766117	0.9280359820089955	
1.710325572879387E12	1.8478260869565217	-4.945652173913043	7.184782608695652	3975.0915750915747	128.0	128.0	-2.7427855423433236	32.9720613923146	30.22927584997128	498.69719072546854	21.771356078547967	-3.068702290076336	6.702290076335878	0.9770992366412213	-0.04947526236881559	0.7781109445277361	0.9250374812593702	
1.7103255728989187E12	1.8478260869565217	-4.9021739130434785	7.315217391304348	3975.0915750915747	128.0	128.0	-2.7573541113560336	32.98944270484957	30.232088593493536	498.7020228745965	21.76493725358692	-2.0	6.106870229007633	1.1908396946564885	-0.041979010494752625	0.7781109445277361	0.9325337331334332	
1.7103255729184507E12	1.8695652173913042	-4.913043478260869	7.293478260869565	3973.626373626373	128.0	128.0	-2.748194664501508	32.993553637689786	30.24535897318828	498.7020949962253	22.07643056826956	-4.885496183206107	7.007633587786259	0.9770992366412213	-0.05697151424287856	0.7706146926536731	0.9295352323838081	
1.7103255729379824E12	1.8478260869565217	-4.945652173913043	7.315217391304348	3953.113553113553	128.0	128.0	-2.7479782996151805	33.00595855783922	30.257980258224045	498.69106038702256	22.245772152635116	-1.6946564885496183	6.061068702290076	1.0229007633587786	-0.05397301349325337	0.7706146926536731	0.9295352323838081	
1.7103255729575142E12	1.8369565217391304	-4.989130434782608	7.33695652173913	3975.0915750915747	128.0	128.0	-2.7367273255261573	33.00884342299025	30.2721160974641	498.70368167205834	22.276640209751157	-3.3740458015267176	6.442748091603053	0.7786259541984732	-0.05397301349325337	0.7526236881559221	0.9250374812593702	
1.7103255729770461E12	1.858695652173913	-4.989130434782608	7.33695652173913	3975.0915750915747	128.0	128.0	-2.735501257836969	33.00141489522635	30.26591363738938	498.7006525636498	22.40523307385839	-2.5801526717557253	6.595419847328244	0.6870229007633587	-0.05397301349325337	0.7706146926536731	0.9295352323838081	
1.710325572996578E12	1.8695652173913042	-4.967391304347826	7.3478260869565215	3964.8351648351645	128.0	128.0	-2.7339145820039015	32.991678475341615	30.257763893337717	498.7080089697849	22.46487766085597	-3.6488549618320607	7.083969465648854	0.6717557251908397	-0.04497751124437781	0.7541229385307346	0.9340329835082458	
1.7103255730161096E12	1.8478260869565217	-4.923913043478261	7.315217391304348	3973.626373626373	128.0	128.0	-2.7281448517018383	32.974874135836856	30.24672928413502	498.7023834827404	22.511179746530026	-3.5114503816793894	7.312977099236641	0.7633587786259541	-0.046476761619190406	0.7781109445277361	0.9370314842578711	
1.7103255730356416E12	1.8478260869565217	-4.9021739130434785	7.271739130434782	3973.626373626373	128.0	128.0	-2.7293709193910267	32.96795045947438	30.238579540083357	498.6942337386887	22.583012888790716	-3.2213740458015265	6.977099236641221	0.8244274809160305	-0.05247376311844078	0.7616191904047975	0.9460269865067465	
1.7103255730551733E12	1.858695652173913	-4.9021739130434785	7.271739130434782	3972.161172161172	128.0	128.0	-2.7285054598457172	32.95186733625738	30.223361876411662	498.70757624001226	22.71297606384469	-3.2213740458015265	7.2824427480916025	0.8854961832061068	-0.05697151424287856	0.775112443778111	0.9250374812593702	
1.710325573074705E12	1.891304347826087	-4.934782608695652	7.293478260869565	3975.0915750915747	128.0	128.0	-2.7321115412845067	32.95186733625738	30.219755794972873	498.69207008982545	22.690978967068073	-2.687022900763359	6.519083969465648	0.47328244274809156	-0.046476761619190406	0.775112443778111	0.9370314842578711	
1.710325573094237E12	1.8478260869565217	-4.989130434782608	7.315217391304348	3956.043956043956	128.0	128.0	-2.742280690941893	32.94400607872082	30.201725387778925	498.70627805069427	22.693358980817674	-2.9618320610687023	6.366412213740458	0.7480916030534351	-0.046476761619190406	0.767616191904048	0.9370314842578711	
1.7103255731137688E12	1.8478260869565217	-4.989130434782608	7.33695652173913	3973.626373626373	128.0	128.0	-2.7219423916271204	32.930375090882194	30.208432699255074	498.7216399576235	22.849790793632366	-2.946564885496183	6.045801526717557	0.8854961832061068	-0.05547226386806597	0.7796101949025487	0.9385307346326837	
1.7103255731333005E12	1.8695652173913042	-4.956521739130435	7.33695652173913	3973.626373626373	128.0	128.0	-2.736150352495951	32.93982302425182	30.20367267175587	498.71449991637473	22.503102124107137	-3.129770992366412	6.213740458015267	0.7022900763358778	-0.05697151424287856	0.7781109445277361	0.9325337331334332	
1.7103255731528325E12	1.858695652173913	-4.956521739130435	7.293478260869565	3964.8351648351645	128.0	128.0	-2.7240339188616183	32.93383692906343	30.209803010201814	498.70721563186834	22.598230552462407	-3.1908396946564883	6.519083969465648	0.8244274809160305	-0.05397301349325337	0.760119940029985	0.9220389805097451	
1.7103255731723643E12	1.858695652173913	-4.913043478260869	7.315217391304348	3973.626373626373	128.0	128.0	-2.72691878401265	32.932755104631795	30.205836320619145	498.7157259840639	22.330442944817896	-3.3435114503816794	6.7328244274809155	0.8244274809160305	-0.046476761619190406	0.775112443778111	0.9250374812593702	
1.710325573191896E12	1.8478260869565217	-4.923913043478261	7.293478260869565	3975.0915750915747	128.0	128.0	-2.7246830135206004	32.93917392959284	30.21449091607224	498.7049077397475	22.42953806275583	-3.3587786259541983	6.473282442748092	1.083969465648855	-0.05697151424287856	0.767616191904048	0.9325337331334332	
1.710325573211428E12	1.858695652173913	-4.945652173913043	7.315217391304348	3973.626373626373	128.0	128.0	-2.7352848929506415	32.942347281258975	30.207062388308334	498.7091629158453	22.142854588372064	-3.2519083969465647	6.702290076335878	0.6564885496183206	-0.046476761619190406	0.760119940029985	0.9295352323838081	
1.7103255732309597E12	1.8478260869565217	-4.967391304347826	7.326086956521739	3973.626373626373	128.0	128.0	-2.723745432346515	32.95013641716676	30.22639098482025	498.7129853621704	22.309960402245572	-3.129770992366412	6.488549618320611	0.6564885496183206	-0.06146926536731634	0.775112443778111	0.9295352323838081	
1.7103255732504915E12	1.8478260869565217	-4.967391304347826	7.380434782608695	3950.18315018315	128.0	128.0	-2.705787146781343	33.013603450489455	30.307816303708115	498.70779260489854	22.09287429963044	-2.854961832061069	6.519083969465648	0.7022900763358778	-0.05547226386806597	0.7691154422788605	0.9280359820089955	
1.7103255732700234E12	1.8369565217391304	-4.978260869565217	7.358695652173913	3975.0915750915747	128.0	128.0	-2.6897040235643415	33.017353775185796	30.327649751621458	498.7108938349359	22.434225968626258	-2.931297709923664	7.297709923664121	0.6564885496183206	-0.04047976011994003	0.7691154422788605	0.9385307346326837	
1.7103255732895552E12	1.8478260869565217	-4.967391304347826	7.3478260869565215	3973.626373626373	128.0	128.0	-2.694175564548441	33.00242459802921	30.30824903348077	498.6978398201275	22.853252631813604	-3.068702290076336	7.83206106870229	0.6259541984732824	-0.05697151424287856	0.767616191904048	0.9325337331334332	
1.710325573309087E12	1.858695652173913	-4.934782608695652	7.369565217391304	3964.8351648351645	128.0	128.0	-2.712927188030146	32.90275250706107	30.18982531903092	498.71233626751143	23.283602390718748	-3.3740458015267176	7.98473282442748	0.8549618320610687	-0.047976011994003	0.7616191904047975	0.9310344827586207	
1.710325573328619E12	1.858695652173913	-4.9021739130434785	7.33695652173913	3975.0915750915747	128.0	128.0	-2.726125446096116	32.90152643937188	30.175400993275762	498.69445010357504	23.767033668402874	-3.282442748091603	8.16793893129771	1.0076335877862594	-0.04947526236881559	0.775112443778111	0.9325337331334332	
1.7103255733481506E12	1.826086956521739	-4.923913043478261	7.282608695652174	3975.0915750915747	128.0	128.0	-2.727567878671632	32.89770399304676	30.17013611437513	498.71449991637473	24.900280821356873	-2.748091603053435	7.603053435114504	0.9007633587786259	-0.05397301349325337	0.7631184407796102	0.9325337331334332	
1.7103255733676824E12	1.858695652173913	-4.956521739130435	7.293478260869565	3973.626373626373	128.0	128.0	-2.7277842435579593	32.881692991458536	30.153908747900577	498.7097398888755	25.6461627061561	-3.1755725190839694	8.6412213740458	0.33587786259541985	-0.04047976011994003	0.7796101949025487	0.9175412293853074	
1.7103255733872144E12	1.8804347826086956	-4.956521739130435	7.358695652173913	3967.7655677655675	128.0	128.0	-2.526853385788606	32.89517973603961	30.368326350251003	498.72034176830556	26.022853973252058	-3.5267175572519083	9.251908396946565	0.7022900763358778	-0.04947526236881559	0.7556221889055472	0.9295352323838081	
1.710325573406746E12	1.826086956521739	-4.923913043478261	7.391304347826087	3950.18315018315	128.0	128.0	-2.6588359664483034	34.40266602071119	31.743830054262887	498.72387572811556	25.859426362446115	-4.045801526717557	8.625954198473282	0.6717557251908397	-0.04047976011994003	0.7691154422788605	0.9280359820089955	
1.7103255734262778E12	1.8043478260869565	-4.923913043478261	7.467391304347826	3975.0915750915747	128.0	128.0	-3.038195733808963	33.848267060311684	30.810071326502722	498.72127934947963	25.89649687963687	-3.16030534351145	6.7328244274809155	1.0534351145038168	-0.06146926536731634	0.767616191904048	0.9295352323838081	
1.7103255734458098E12	1.8695652173913042	-5.0	7.130434782608695	3975.0915750915747	128.0	128.0	-2.7639171795746305	33.11796344732803	30.354046267753397	498.73411699940175	26.115530266228948	-2.183206106870229	2.6412213740458013	2.1221374045801524	-0.05247376311844078	0.7586206896551724	0.9205397301349325	
1.7103255734653416E12	1.858695652173913	-4.8478260869565215	7.5	3964.8351648351645	128.0	128.0	-2.7038398628043967	33.01194465302761	30.30810479022322	498.70844169955757	25.64911969293591	-7.2824427480916025	6.8396946564885495	0.21374045801526717	-0.04947526236881559	0.767616191904048	0.9250374812593702	
1.7103255734848733E12	1.858695652173913	-5.010869565217392	7.173913043478261	3973.626373626373	128.0	128.0	-2.67037542705243	32.974729892579305	30.304354465526878	498.6806027508501	26.000784754846666	1.2213740458015268	6.580152671755725	0.8854961832061068	-0.047976011994003	0.7721139430284857	0.9340329835082458	
1.7103255735044053E12	1.8695652173913042	-4.913043478260869	7.1521739130434785	3975.0915750915747	128.0	128.0	-2.6671299537575193	32.97364806814767	30.30651811439015	498.69719072546854	25.85985909221877	-6.977099236641221	9.877862595419847	0.183206106870229	-0.06146926536731634	0.775112443778111	0.9400299850074962	
1.710325573523937E12	1.8152173913043477	-4.9021739130434785	7.260869565217391	3972.161172161172	128.0	128.0	-2.668211778189156	32.99723184075735	30.329020062568198	498.7107495916784	25.691022359254642	-2.7938931297709924	7.312977099236641	1.114503816793893	-0.05397301349325337	0.7811094452773613	0.9475262368815592	
1.7103255735434688E12	1.8478260869565217	-4.945652173913043	7.25	3964.8351648351645	128.0	128.0	-2.660422642281371	33.01454103166354	30.354118389382172	498.7054847127777	24.77442857914312	-4.580152671755725	5.801526717557252	0.732824427480916	-0.05397301349325337	0.767616191904048	0.9400299850074962	
1.7103255735630007E12	1.858695652173913	-5.032608695652174	7.413043478260869	3950.18315018315	128.0	128.0	-2.645493465124782	33.03920662870486	30.39371316358008	498.7297175800464	24.03799462771352	-4.015267175572519	5.557251908396946	1.1450381679389312	-0.06146926536731634	0.775112443778111	0.9400299850074962	
1.7103255735825325E12	1.9021739130434783	-5.065217391304348	7.369565217391304	3973.626373626373	128.0	128.0	-2.6141926782360887	33.0969039317255	30.48271125348941	498.7267605932666	23.65618272497448	-3.6946564885496183	5.358778625954198	1.129770992366412	-0.06296851574212893	0.7586206896551724	0.9460269865067465	
1.7103255736020642E12	1.8478260869565217	-5.054347826086956	7.369565217391304	3973.626373626373	128.0	128.0	-2.586209486271082	33.16390492485821	30.577695438587124	498.7223611739113	23.501698196136736	-3.465648854961832	6.244274809160305	0.916030534351145	-0.046476761619190406	0.775112443778111	0.9370314842578711	
1.7103255736215962E12	1.8152173913043477	-4.967391304347826	7.282608695652174	3964.8351648351645	128.0	128.0	-2.558226294306075	33.26249519139471	30.704268897088635	498.7121199026251	24.202359819693545	-3.618320610687023	6.6106870229007635	0.6870229007633587	-0.05247376311844078	0.7691154422788605	0.9385307346326837	
1.710325573641128E12	1.8043478260869565	-4.891304347826087	7.271739130434782	3975.0915750915747	128.0	128.0	-2.573516079606543	33.30605665517529	30.73254057556875	498.72063025482066	23.792853211504607	-4.977099236641221	6.2748091603053435	1.1908396946564885	-0.04947526236881559	0.775112443778111	0.9325337331334332	
1.7103255736606597E12	1.826086956521739	-4.891304347826087	7.260869565217391	3973.626373626373	128.0	128.0	-2.6066920288434066	33.2223234441666	30.61563141532319	498.72156783599473	23.588316272296463	-3.6946564885496183	5.572519083969466	1.1450381679389312	-0.04047976011994003	0.7721139430284857	0.9280359820089955	
1.7103255736801917E12	1.8152173913043477	-4.891304347826087	7.217391304347826	3973.626373626373	128.0	128.0	-2.663091142546075	33.1201270961913	30.457035953645224	498.72445270114576	22.994250416070273	-3.5267175572519083	5.343511450381679	1.3129770992366412	-0.05997001499250375	0.7721139430284857	0.9385307346326837	
1.7103255736997234E12	1.8369565217391304	-4.945652173913043	7.304347826086956	3973.626373626373	128.0	128.0	-2.6904252398521	32.99982821939328	30.309402979541183	498.6808912373652	22.688743196576024	-3.7862595419847325	6.412213740458015	0.7175572519083969	-0.05397301349325337	0.7631184407796102	0.9250374812593702	
1.7103255737192551E12	1.826086956521739	-4.978260869565217	7.326086956521739	3963.369963369963	128.0	128.0	-2.6902088749657724	32.970114108337654	30.279905233371885	498.6728136149423	22.49877482638059	-3.282442748091603	6.65648854961832	0.5190839694656488	-0.047976011994003	0.7841079460269865	0.9340329835082458	
1.710325573738787E12	1.8152173913043477	-5.043478260869565	7.326086956521739	3948.7179487179483	128.0	128.0	-2.7165332694689357	32.97581171701094	30.25927844754201	498.69805618501385	22.607317877688157	-3.099236641221374	6.366412213740458	0.8702290076335878	-0.05547226386806597	0.7661169415292354	0.9205397301349325	
1.7103255737583188E12	1.826086956521739	-4.978260869565217	7.3478260869565215	3973.626373626373	128.0	128.0	-2.707157457728083	32.95987283705149	30.252715379323412	498.6937288872873	23.084041843896134	-4.1679389312977095	7.435114503816793	0.9465648854961831	-0.047976011994003	0.7841079460269865	0.9310344827586207	
1.7103255737778506E12	1.8369565217391304	-4.978260869565217	7.173913043478261	3964.8351648351645	128.0	128.0	-2.720139350907725	32.97819173076054	30.25805237985282	498.7022392394828	22.701941454641993	-2.213740458015267	6.625954198473282	1.4351145038167938	-0.04947526236881559	0.760119940029985	0.9220389805097451	
1.7103255737973826E12	1.8043478260869565	-4.9021739130434785	7.293478260869565	3973.626373626373	128.0	128.0	-2.7172544857566936	32.97718202795768	30.25992754220099	498.70216711785406	22.222837474684415	-5.755725190839694	6.809160305343511	1.2366412213740459	-0.046476761619190406	0.7631184407796102	0.9295352323838081	
1.7103255738169143E12	1.8043478260869565	-4.913043478260869	7.3478260869565215	3975.0915750915747	128.0	128.0	-2.6987192271613156	32.99045240765243	30.291733180491114	498.68810340024277	22.360661907274952	-2.9618320610687023	6.595419847328244	1.129770992366412	-0.07346326836581708	0.7856071964017991	0.9370314842578711	
1.710325573836446E12	1.8478260869565217	-4.967391304347826	7.304347826086956	3975.0915750915747	128.0	128.0	-2.699296200191522	32.993553637689786	30.294257437498267	498.7051962262626	23.385582373807715	-2.900763358778626	7.038167938931298	1.0076335877862594	-0.05547226386806597	0.7661169415292354	0.9310344827586207	
1.710325573855978E12	1.8369565217391304	-5.010869565217392	7.315217391304348	3975.0915750915747	128.0	128.0	-2.6899203884506693	32.9926160565157	30.302695668065034	498.70029195550586	23.63151712793316	-2.900763358778626	6.870229007633587	0.8244274809160305	-0.05697151424287856	0.7856071964017991	0.9325337331334332	
1.7103255738755098E12	1.826086956521739	-5.032608695652174	7.3478260869565215	3951.6483516483513	128.0	128.0	-2.6890549289053594	32.98511540712302	30.29606047821766	498.68579550812194	23.844925027480727	-3.0229007633587783	7.343511450381679	0.6870229007633587	-0.05397301349325337	0.767616191904048	0.9190404797601199	
1.7103255738950415E12	1.8152173913043477	-4.978260869565217	7.33695652173913	3975.0915750915747	128.0	128.0	-2.6824918606867625	32.97242200045848	30.28993013977172	498.7126968756553	23.85494993388056	-2.610687022900763	6.854961832061068	1.2519083969465647	-0.04947526236881559	0.7556221889055472	0.9220389805097451	
1.7103255739145735E12	1.826086956521739	-4.923913043478261	7.260869565217391	3976.556776556776	128.0	128.0	-2.6974210378433514	32.963406796861506	30.265985759018157	498.7051962262626	23.84196804070092	-2.5038167938931295	6.870229007633587	1.099236641221374	-0.05247376311844078	0.7691154422788605	0.9340329835082458	
1.7103255739341052E12	1.826086956521739	-4.913043478260869	7.228260869565217	3963.369963369963	128.0	128.0	-2.680905184853695	32.948838227848796	30.267933042995104	498.67916031827457	23.21277895126092	-2.687022900763359	6.900763358778626	1.2061068702290076	-0.038980509745127435	0.7526236881559221	0.9370314842578711	
1.710325573953637E12	1.8369565217391304	-4.967391304347826	7.271739130434782	3975.0915750915747	128.0	128.0	-2.6940313212908893	32.94479941663735	30.250768095346466	498.68752642721256	23.253816158034343	-2.9618320610687023	6.687022900763359	1.2061068702290076	-0.05247376311844078	0.7691154422788605	0.9340329835082458	
1.710325573973169E12	1.858695652173913	-4.989130434782608	7.293478260869565	3975.0915750915747	128.0	128.0	-2.7001616597368314	32.94717943038695	30.247017770650125	498.660048086649	23.6075727471796	-3.236641221374046	6.6106870229007635	0.7480916030534351	-0.06296851574212893	0.7871064467766117	0.9340329835082458	
1.7103255739927007E12	1.8369565217391304	-4.978260869565217	7.304347826086956	3973.626373626373	128.0	128.0	-2.6897040235643415	32.94191455148632	30.25221052792198	498.64122434153853	23.987797974085566	-3.0839694656488548	6.7328244274809155	1.2061068702290076	-0.041979010494752625	0.767616191904048	0.9250374812593702	
1.7103255740122324E12	1.8369565217391304	-4.956521739130435	7.315217391304348	3973.626373626373	128.0	128.0	-2.682996712088193	32.93679391584324	30.25379720375505	498.65117712630956	23.87723551717228	-3.3587786259541983	6.854961832061068	1.0381679389312977	-0.05697151424287856	0.7706146926536731	0.9250374812593702	
1.7103255740512961E12	1.8695652173913042	-4.945652173913043	7.25	3975.0915750915747	128.0	128.0	-2.698574983903764	32.92705749595851	30.228482512054747	498.655215937521	23.98722100105536	-3.541984732824427	7.0534351145038165	0.183206106870229	-0.05247376311844078	0.7766116941529235	0.9280359820089955	
1.710325574070828E12	1.8478260869565217	-4.934782608695652	7.260869565217391	3973.626373626373	128.0	128.0	-2.6971325513282483	32.934630266979966	30.23749771565172	498.6513934911959	23.786506508172337	-3.8931297709923665	7.190839694656488	0.5954198473282443	-0.047976011994003	0.7661169415292354	0.9280359820089955	
1.7103255740903599E12	1.858695652173913	-4.967391304347826	7.25	3961.9047619047615	128.0	128.0	-2.694752537578647	32.93975090262305	30.244998365044403	498.6495904504765	23.92418669750532	-3.618320610687023	7.0534351145038165	0.9007633587786259	-0.05397301349325337	0.767616191904048	0.9190404797601199	
1.7103255741098916E12	1.8152173913043477	-4.989130434782608	7.326086956521739	3973.626373626373	128.0	128.0	-2.672755440802031	33.001126408711244	30.328370967909215	498.64648922043915	23.654740292398966	-3.847328244274809	7.129770992366412	0.7633587786259541	-0.04947526236881559	0.7631184407796102	0.9295352323838081	
1.7103255741294233E12	1.8152173913043477	-4.956521739130435	7.282608695652174	3973.626373626373	128.0	128.0	-2.668860872848138	33.02398896503317	30.355128092185033	498.6591105054749	23.887765274973546	-3.3587786259541983	6.8396946564885495	0.9312977099236641	-0.025487256371814093	0.7616191904047975	0.9310344827586207	
1.7103255741489553E12	1.8043478260869565	-4.934782608695652	7.326086956521739	3973.626373626373	128.0	128.0	-2.665543277924452	33.00466036852126	30.339117090596808	498.6627165869137	24.13391639398532	-3.5572519083969465	7.0534351145038165	1.2061068702290076	-0.046476761619190406	0.775112443778111	0.9370314842578711	
1.710325574168487E12	1.8043478260869565	-4.967391304347826	7.293478260869565	3966.300366300366	128.0	128.0	-2.687756739587395	32.92431687406503	30.236560134477635	498.6566583700965	24.49870759233327	-3.5114503816793894	7.297709923664121	0.9618320610687022	-0.05547226386806597	0.7691154422788605	0.9280359820089955	
1.710325574188019E12	1.7934782608695652	-4.978260869565217	7.239130434782608	3969.230769230769	128.0	128.0	-2.699656808335401	32.91176771065804	30.21211090232264	498.67036147956395	24.646845417838744	-3.9389312977099236	7.587786259541985	0.6870229007633587	-0.05547226386806597	0.7691154422788605	0.9385307346326837	
1.7103255742075508E12	1.8369565217391304	-4.967391304347826	7.228260869565217	3973.626373626373	128.0	128.0	-2.7062919981827736	32.9101089131962	30.203816915013423	498.66891904698844	24.535129014865046	-3.633587786259542	7.251908396946565	1.0534351145038168	-0.05397301349325337	0.767616191904048	0.9370314842578711	
1.7103255742270825E12	1.8152173913043477	-4.967391304347826	7.228260869565217	3975.0915750915747	128.0	128.0	-2.7062919981827736	32.9014543177431	30.19516231956033	498.6672602495266	24.176323911705484	-3.4045801526717554	6.717557251908397	0.9770992366412213	-0.05547226386806597	0.7691154422788605	0.9205397301349325	
1.7103255742466145E12	1.8152173913043477	-4.956521739130435	7.271739130434782	3963.369963369963	128.0	128.0	-2.5501486718831865	32.90888284550701	30.358734173623823	498.6640147762317	23.63086803327418	-3.49618320610687	6.366412213740458	1.1450381679389312	-0.047976011994003	0.7721139430284857	0.9340329835082458	
1.7103255742661462E12	1.8043478260869565	-4.956521739130435	7.282608695652174	3976.556776556776	128.0	128.0	-2.6180872461899813	34.22279467854437	31.604707432354385	498.6697123849049	23.234126953378553	-3.068702290076336	6.748091603053435	1.0229007633587786	-0.04497751124437781	0.7661169415292354	0.9460269865067465	
1.710325574285678E12	1.826086956521739	-4.934782608695652	7.369565217391304	3975.0915750915747	128.0	128.0	-2.970978375789926	33.246339946548936	30.27536157075901	498.6897621977046	23.710778797957754	-3.7862595419847325	6.793893129770992	1.297709923664122	-0.0704647676161919	0.7616191904047975	0.9310344827586207	
1.71032557430521E12	1.8695652173913042	-5.0	7.260869565217391	3975.0915750915747	128.0	128.0	-2.7849766951771615	33.08608568740913	30.301108992231967	498.65132136956714	23.961906309355058	-2.4427480916030535	5.32824427480916	1.3129770992366412	-0.05547226386806597	0.7691154422788605	0.9280359820089955	
1.7103255743247417E12	1.7608695652173914	-4.891304347826087	7.217391304347826	3976.556776556776	128.0	128.0	-2.7212211753393625	33.03423023631933	30.313009060979972	498.67317422308616	23.353344005744937	-4.045801526717557	5.190839694656488	1.1908396946564885	-0.05397301349325337	0.7781109445277361	0.9400299850074962	
1.7103255743442734E12	1.7826086956521738	-5.032608695652174	7.163043478260869	3951.6483516483513	128.0	128.0	-2.7035513762892935	32.996799110984696	30.293247734695406	498.67447241240416	23.10877956256623	-0.9465648854961831	8.183206106870228	0.6106870229007634	-0.04947526236881559	0.7811094452773613	0.9250374812593702	
1.7103255743638054E12	1.8043478260869565	-4.978260869565217	7.130434782608695	3975.0915750915747	128.0	128.0	-2.6837900500047267	33.00942039602046	30.325630346015735	498.678366980358	22.82692823731044	-4.2748091603053435	8.351145038167939	0.04580152671755725	-0.05697151424287856	0.760119940029985	0.9250374812593702	
1.7103255743833372E12	1.7934782608695652	-4.978260869565217	7.358695652173913	3975.0915750915747	128.0	128.0	-2.675784549210614	33.02052712685193	30.34474257764132	498.6806027508501	22.495817839600782	-2.8091603053435112	6.961832061068702	0.47328244274809156	-0.041979010494752625	0.767616191904048	0.9325337331334332	
1.710325574402869E12	1.8043478260869565	-4.967391304347826	7.293478260869565	3958.974358974359	128.0	128.0	-2.6793185090206277	33.048366075559386	30.36904756653876	498.68017002107746	22.28738633243875	-2.4732824427480917	6.381679389312977	0.7175572519083969	-0.05997001499250375	0.7691154422788605	0.9310344827586207	
1.710325574422401E12	1.7934782608695652	-4.989130434782608	7.304347826086956	3975.0915750915747	128.0	128.0	-2.641671018799665	33.08716751184076	30.445496493041098	498.67858334524436	21.539917771806454	-2.7938931297709924	5.267175572519084	1.1908396946564885	-0.046476761619190406	0.7706146926536731	0.9325337331334332	
1.7103255744419326E12	1.8369565217391304	-4.989130434782608	7.282608695652174	3975.0915750915747	128.0	128.0	-2.6295545851653324	33.13332535425727	30.50377076909194	498.66790934418555	20.90459834392051	-2.5801526717557253	4.106870229007633	1.3435114503816794	-0.038980509745127435	0.7631184407796102	0.9295352323838081	
1.7103255744614644E12	1.8369565217391304	-4.945652173913043	7.282608695652174	3973.626373626373	128.0	128.0	-2.5955852980119345	33.24230113533749	30.646715837325555	498.66350992483024	20.77889034496431	-3.297709923664122	4.33587786259542	0.6259541984732824	-0.05697151424287856	0.7706146926536731	0.9220389805097451	
1.7103255744809963E12	1.7934782608695652	-4.978260869565217	7.260869565217391	3973.626373626373	128.0	128.0	-2.5681790790771344	33.282689247451934	30.714510168374797	498.67858334524436	20.526536765877818	-2.748091603053435	5.3893129770992365	1.099236641221374	-0.04947526236881559	0.775112443778111	0.9325337331334332	
1.710325574500528E12	1.8152173913043477	-4.956521739130435	7.25	3970.6959706959706	128.0	128.0	-2.564356632752017	33.33274165782233	30.768385025070316	498.66423114111797	20.394482063589344	-2.916030534351145	5.541984732824427	1.0687022900763359	-0.05247376311844078	0.7691154422788605	0.9460269865067465	
1.7103255745200598E12	1.826086956521739	-4.9021739130434785	7.293478260869565	3973.626373626373	128.0	128.0	-2.6203951383108066	33.281968031164176	30.661572892853368	498.65088863979446	20.791006778598643	-2.854961832061069	5.969465648854961	1.099236641221374	-0.06146926536731634	0.7631184407796102	0.9295352323838081	
1.7103255745395918E12	1.826086956521739	-4.945652173913043	7.3478260869565215	3973.626373626373	128.0	128.0	-2.661792953228111	33.1677994928121	30.50600653958399	498.6663226683525	20.92140268342527	-2.900763358778626	6.290076335877862	1.0534351145038168	-0.046476761619190406	0.7706146926536731	0.9400299850074962	
1.7103255745591235E12	1.8478260869565217	-4.945652173913043	7.282608695652174	3958.974358974359	128.0	128.0	-2.706508363069101	33.05810249544412	30.35159413237502	498.66069718130797	21.59170110126747	-2.4427480916030535	6.549618320610687	0.7480916030534351	-0.04947526236881559	0.7631184407796102	0.9400299850074962	
1.7103255745786553E12	1.8478260869565217	-4.934782608695652	7.304347826086956	3975.0915750915747	128.0	128.0	-2.701748335569899	33.02672958692665	30.324981251356753	498.6668275197539	21.784049485212506	-2.5038167938931295	6.8396946564885495	0.48854961832061067	-0.05397301349325337	0.7631184407796102	0.9475262368815592	
1.7103255745981873E12	1.8043478260869565	-5.0	7.260869565217391	3973.626373626373	128.0	128.0	-2.705787146781343	33.00891554461903	30.30312839783769	498.64108009828095	22.566064306028405	-2.2748091603053435	6.534351145038167	0.9312977099236641	-0.041979010494752625	0.767616191904048	0.9325337331334332	
1.710325574617719E12	1.8478260869565217	-4.978260869565217	7.33695652173913	3973.626373626373	128.0	128.0	-2.7026137951152083	32.991534232084064	30.28892043696886	498.66906329024596	22.494447528654042	-3.3587786259541983	6.99236641221374	0.6717557251908397	-0.05247376311844078	0.7661169415292354	0.9235382308845577	
1.7103255746372507E12	1.8152173913043477	-4.967391304347826	7.260869565217391	3973.626373626373	128.0	128.0	-2.7024695518576567	33.00408339549105	30.301613843633397	498.6599038433914	22.421099832189064	-2.2442748091603053	6.763358778625954	1.114503816793893	-0.05247376311844078	0.7721139430284857	0.9415292353823088	
1.7103255746567827E12	1.7717391304347825	-4.967391304347826	7.239130434782608	3972.161172161172	128.0	128.0	-2.703407133031742	33.013098599088025	30.309691466056286	498.6650244790345	22.07902694690549	-3.114503816793893	7.404580152671755	0.6564885496183206	-0.05397301349325337	0.760119940029985	0.9220389805097451	
1.7103255746763145E12	1.8152173913043477	-4.913043478260869	7.304347826086956	3973.626373626373	128.0	128.0	-2.703335011402966	33.03098476302442	30.327649751621458	498.6586056540735	22.088835488418997	-3.5114503816793894	6.6106870229007635	1.083969465648855	-0.06146926536731634	0.7631184407796102	0.9145427286356821	
1.7103255746958462E12	1.8043478260869565	-4.9021739130434785	7.380434782608695	3975.0915750915747	128.0	128.0	-2.697204672957024	33.03891814218976	30.341713469232737	498.675482115207	22.287602697325077	-3.1755725190839694	6.687022900763359	0.9770992366412213	-0.04947526236881559	0.760119940029985	0.9325337331334332	
1.7103255747153782E12	1.826086956521739	-4.956521739130435	7.326086956521739	3958.974358974359	128.0	128.0	-2.6970604296994725	33.0361053986675	30.339044968968032	498.6731021014574	22.348833960155723	-2.1221374045801524	7.022900763358779	0.22900763358778625	-0.06146926536731634	0.767616191904048	0.9325337331334332	
1.71032557473491E12	1.8152173913043477	-4.967391304347826	7.315217391304348	3975.0915750915747	128.0	128.0	-2.692805253601701	33.045481210408354	30.352675956806657	498.6634378032015	22.36859528644029	-2.5801526717557253	7.404580152671755	0.4427480916030534	-0.04497751124437781	0.7691154422788605	0.9310344827586207	
1.7103255747544417E12	1.826086956521739	-4.978260869565217	7.304347826086956	3975.0915750915747	128.0	128.0	-2.691723429170064	33.02398896503317	30.332265535863108	498.6729578581999	22.677275857600673	-2.549618320610687	7.1603053435114505	0.48854961832061067	-0.038980509745127435	0.7556221889055472	0.9370314842578711	
1.7103255747739736E12	1.8478260869565217	-4.934782608695652	7.271739130434782	3972.161172161172	128.0	128.0	-2.6904252398521	33.01865196450376	30.328226724651664	498.65600927543755	23.200734639255362	-2.778625954198473	7.083969465648854	0.9770992366412213	-0.04947526236881559	0.7706146926536731	0.9250374812593702	
1.7103255747935054E12	1.8369565217391304	-4.913043478260869	7.25	3973.626373626373	128.0	128.0	-2.697204672957024	33.01201677465639	30.314812101699367	498.6257181913517	23.162510176004194	-3.0381679389312977	7.114503816793893	0.916030534351145	-0.0704647676161919	0.7721139430284857	0.9310344827586207	
1.710325574813037E12	1.7934782608695652	-4.891304347826087	7.260869565217391	3972.161172161172	128.0	128.0	-2.6912906993974093	33.00473249015003	30.313441790752627	498.65060015327936	23.186670921644083	-3.2061068702290076	6.793893129770992	0.6564885496183206	-0.046476761619190406	0.7556221889055472	0.9250374812593702	
1.710325574832569E12	1.7934782608695652	-4.945652173913043	7.293478260869565	3948.7179487179483	128.0	128.0	-2.7084556470460472	33.004516125263706	30.29606047821766	498.66610630346617	22.98862492902576	-3.129770992366412	6.595419847328244	0.7175572519083969	-0.05397301349325337	0.7631184407796102	0.9400299850074962	
1.7103255748521008E12	1.826086956521739	-4.956521739130435	7.228260869565217	3973.626373626373	128.0	128.0	-2.698863470418867	32.99881851659042	30.299955046171554	498.6487249909312	22.94686650596458	-2.900763358778626	5.541984732824427	0.6870229007633587	-0.06296851574212893	0.7691154422788605	0.9310344827586207	
1.7103255748716326E12	1.8152173913043477	-4.956521739130435	7.315217391304348	3956.043956043956	128.0	128.0	-2.704488957463379	33.00033307079471	30.295844113331334	498.6827663997134	21.858623249366673	-3.66412213740458	4.977099236641221	0.6870229007633587	-0.041979010494752625	0.7631184407796102	0.9370314842578711	
1.7103255748911646E12	1.8478260869565217	-4.945652173913043	7.358695652173913	3975.0915750915747	128.0	128.0	-2.701676213941123	32.99773669215878	30.29606047821766	498.68110760225153	21.531118933095808	-3.8167938931297707	5.022900763358779	0.4580152671755725	-0.06146926536731634	0.7631184407796102	0.9325337331334332	
1.7103255749106963E12	1.8695652173913042	-4.967391304347826	7.33695652173913	3975.0915750915747	128.0	128.0	-2.6916513075412882	32.988577245304256	30.29692593776297	498.67180391213947	20.755667180498502	-2.595419847328244	5.526717557251908	0.549618320610687	-0.05547226386806597	0.7691154422788605	0.9235382308845577	
1.710325574930228E12	1.8152173913043477	-4.956521739130435	7.33695652173913	3973.626373626373	128.0	128.0	-2.69316586174558	33.015839220981505	30.322673359235928	498.69120463028014	20.38698141419666	-2.5038167938931295	6.076335877862595	0.7022900763358778	-0.05247376311844078	0.7661169415292354	0.9235382308845577	
1.71032557494976E12	1.8369565217391304	-4.945652173913043	7.33695652173913	3973.626373626373	128.0	128.0	-2.675423941066735	33.06610799623823	30.390684055171498	498.6746166556617	20.270000132322327	-3.099236641221374	6.076335877862595	1.0076335877862594	-0.06596701649175413	0.7631184407796102	0.9325337331334332	
1.7103255749692917E12	1.8369565217391304	-4.945652173913043	7.315217391304348	3972.161172161172	128.0	128.0	-2.6731881705746856	33.09546149914998	30.422273328575294	498.66790934418555	20.356041235451848	-3.2213740458015265	5.786259541984733	0.7938931297709924	-0.046476761619190406	0.7706146926536731	0.9295352323838081	
1.7103255749888235E12	1.826086956521739	-4.923913043478261	7.293478260869565	3973.626373626373	128.0	128.0	-2.6691493593632414	33.06856013161661	30.39941077225337	498.6654572088072	20.68361767335149	-3.32824427480916	5.419847328244274	0.9923664122137404	-0.05697151424287856	0.760119940029985	0.9325337331334332	
1.7103255750083555E12	1.8369565217391304	-4.923913043478261	7.315217391304348	3973.626373626373	128.0	128.0	-2.68955978030679	32.95799767470332	30.268437894396534	498.6658899385798	20.850074392566015	-3.0229007633587783	6.015267175572519	0.9312977099236641	-0.05697151424287856	0.775112443778111	0.9295352323838081	
1.7103255750278872E12	1.8478260869565217	-4.945652173913043	7.293478260869565	3956.043956043956	128.0	128.0	-2.7104750526517694	32.97516262235196	30.264687569700193	498.66466387089065	21.230371741100758	-3.1755725190839694	6.351145038167939	0.8244274809160305	-0.046476761619190406	0.7556221889055472	0.9400299850074962	
1.710325575047419E12	1.8369565217391304	-4.945652173913043	7.293478260869565	3975.0915750915747	128.0	128.0	-2.690353118223324	32.96109890474068	30.27074578651736	498.6641590194892	21.039537911360018	-3.3740458015267176	6.748091603053435	0.732824427480916	-0.041979010494752625	0.7781109445277361	0.9190404797601199	
1.710325575066951E12	1.826086956521739	-4.956521739130435	7.304347826086956	3975.0915750915747	128.0	128.0	-2.6984307406462125	32.94126545682734	30.24283471618113	498.66668327649637	20.804132915035837	-3.480916030534351	6.473282442748092	0.9465648854961831	-0.04047976011994003	0.7691154422788605	0.9100449775112444	
1.7103255750864827E12	1.858695652173913	-4.945652173913043	7.304347826086956	3973.626373626373	128.0	128.0	-2.509976924655071	33.28297773396704	30.773000809311966	498.67476089891926	19.966584440062576	-3.83206106870229	6.427480916030534	0.9618320610687022	-0.06896551724137931	0.7781109445277361	0.9370314842578711	
1.7103255751060144E12	1.8369565217391304	-4.934782608695652	7.3478260869565215	3960.43956043956	128.0	128.0	-2.776754829496721	34.81058595306706	32.03383112357034	498.67389543937395	19.540129249111327	-3.7251908396946565	5.633587786259541	0.7938931297709924	-0.05697151424287856	0.7781109445277361	0.9220389805097451	
1.7103255751255464E12	1.858695652173913	-4.923913043478261	7.4021739130434785	3973.626373626373	128.0	128.0	-3.0189392589258266	33.56280965361711	30.54387039469128	498.6534850184304	19.90845440726929	-3.5572519083969465	6.549618320610687	0.8091603053435115	-0.046476761619190406	0.7811094452773613	0.9250374812593702	
1.7103255751450781E12	1.9130434782608696	-5.032608695652174	7.1521739130434785	3973.626373626373	128.0	128.0	-2.7225193646573267	33.1773195478105	30.454800183153175	498.66646691161003	20.61935730211226	-2.1374045801526718	5.2824427480916025	1.0687022900763359	-0.05997001499250375	0.7691154422788605	0.9340329835082458	
1.7103255751646099E12	1.826086956521739	-4.858695652173913	7.543478260869565	3975.0915750915747	128.0	128.0	-2.6985028622749883	33.11190523051086	30.41340236823587	498.6414407064248	19.69100769651028	-5.709923664122138	5.786259541984733	0.5343511450381679	-0.05997001499250375	0.7586206896551724	0.9385307346326837	
1.7103255751841418E12	1.8478260869565217	-5.054347826086956	7.184782608695652	3956.043956043956	128.0	128.0	-2.675423941066735	33.074257740289895	30.398833799223162	498.6662505467237	20.638974385139274	-1.8778625954198473	8.229007633587786	0.38167938931297707	-0.05547226386806597	0.7766116941529235	0.9205397301349325	
1.7103255752036736E12	1.8369565217391304	-4.934782608695652	7.184782608695652	3975.0915750915747	128.0	128.0	-2.6626584127734203	33.0858693225228	30.42321090974938	498.6641590194892	20.350415748407336	-2.9770992366412212	9.770992366412214	-0.33587786259541985	-0.06296851574212893	0.7616191904047975	0.9235382308845577	
1.7103255752232053E12	1.8043478260869565	-4.913043478260869	7.282608695652174	3975.0915750915747	128.0	128.0	-2.644483762321921	33.1090924869886	30.464608724666682	498.6644475060043	19.52714735593168	-4.67175572519084	7.862595419847328	0.32061068702290074	-0.05697151424287856	0.767616191904048	0.9295352323838081	
1.7103255752427373E12	1.8152173913043477	-4.934782608695652	7.282608695652174	3973.626373626373	128.0	128.0	-2.627679422817162	33.126978650925004	30.49929922810784	498.6634378032015	18.800954675788248	-3.6946564885496183	6.793893129770992	0.2900763358778626	-0.05697151424287856	0.7706146926536731	0.9250374812593702	
1.710325575262269E12	1.8152173913043477	-4.978260869565217	7.3478260869565215	3973.626373626373	128.0	128.0	-2.607269001873613	33.15734185663961	30.550072854765997	498.66105778945183	18.35625271275672	-3.9541984732824424	5.343511450381679	0.732824427480916	-0.046476761619190406	0.767616191904048	0.9220389805097451	
1.7103255752818008E12	1.8695652173913042	-4.978260869565217	7.315217391304348	3950.18315018315	128.0	128.0	-2.5959459061558134	33.23256471545276	30.636618809296944	498.65968747850513	17.773293587362	-2.916030534351145	4.641221374045801	0.9312977099236641	-0.06596701649175413	0.775112443778111	0.9400299850074962	
1.7103255753013328E12	1.8695652173913042	-4.989130434782608	7.33695652173913	3973.626373626373	128.0	128.0	-2.575535485212265	33.306994236349375	30.73145875113711	498.62449212366255	17.19314720548954	-3.282442748091603	4.748091603053435	0.4427480916030534	-0.04047976011994003	0.7766116941529235	0.9175412293853074	
1.7103255753208645E12	1.858695652173913	-4.978260869565217	7.33695652173913	3975.0915750915747	128.0	128.0	-2.547624414876034	33.411498476445495	30.86387406156946	498.6455516392651	17.32188431285433	-3.16030534351145	5.603053435114504	0.6259541984732824	-0.04497751124437781	0.7586206896551724	0.9280359820089955	
1.7103255753403962E12	1.8695652173913042	-4.945652173913043	7.271739130434782	3953.113553113553	128.0	128.0	-2.5580820510485234	33.436164073486815	30.878082022438292	498.6573795863843	17.47672944983595	-2.931297709923664	6.2748091603053435	0.8244274809160305	-0.05547226386806597	0.7796101949025487	0.9280359820089955	
1.7103255753599282E12	1.858695652173913	-4.934782608695652	7.282608695652174	3973.626373626373	128.0	128.0	-2.5991192578219486	33.322428264907394	30.723309007085447	498.6462728555528	18.18525233092932	-3.2671755725190836	6.2748091603053435	1.0687022900763359	-0.038980509745127435	0.760119940029985	0.9295352323838081	
1.71032557537946E12	1.8478260869565217	-4.934782608695652	7.293478260869565	3975.0915750915747	128.0	128.0	-2.6408776808831314	33.21511128128902	30.574233600405886	498.6485086260449	18.22722711887683	-2.9618320610687023	6.351145038167939	1.1908396946564885	-0.06146926536731634	0.767616191904048	0.9295352323838081	
1.7103255753989917E12	1.8478260869565217	-4.934782608695652	7.315217391304348	3973.626373626373	128.0	128.0	-2.6518401684570514	33.13822962501403	30.486389456556974	498.6357430977516	18.167654653508027	-3.099236641221374	6.366412213740458	1.1755725190839694	-0.06146926536731634	0.775112443778111	0.9325337331334332	
1.7103255754185237E12	1.8369565217391304	-4.945652173913043	7.315217391304348	3975.0915750915747	128.0	128.0	-2.676145157354493	33.0995724319902	30.423427274635706	498.6553601807786	18.252181202433253	-3.2061068702290076	6.778625954198473	0.6870229007633587	-0.047976011994003	0.7661169415292354	0.9310344827586207	
1.7103255754380554E12	1.8478260869565217	-4.967391304347826	7.33695652173913	3973.626373626373	128.0	128.0	-2.6749190896653046	33.09560574240753	30.420686652742226	498.6423061659701	18.261268527659002	-3.0381679389312977	6.549618320610687	0.549618320610687	-0.038980509745127435	0.7781109445277361	0.9145427286356821	
1.7103255754575872E12	1.8478260869565217	-4.967391304347826	7.33695652173913	3973.626373626373	128.0	128.0	-2.675063332922856	33.09192753933996	30.41686420641711	498.64944620721894	18.439913802136637	-2.8854961832061066	6.3969465648854955	1.129770992366412	-0.05997001499250375	0.7766116941529235	0.9340329835082458	
1.7103255754771191E12	1.8478260869565217	-4.967391304347826	7.271739130434782	3973.626373626373	128.0	128.0	-2.661071736940353	33.08370567365952	30.422633936719173	498.6549274510059	18.669260581643652	-2.2442748091603053	7.0534351145038165	1.0381679389312977	-0.04497751124437781	0.7511244377811094	0.9175412293853074	
1.710325575496651E12	1.826086956521739	-4.967391304347826	7.239130434782608	3953.113553113553	128.0	128.0	-2.6680675349316045	33.095317255892425	30.427249720960823	498.62946851604806	18.470926102510226	-2.687022900763359	6.351145038167939	0.8702290076335878	-0.04497751124437781	0.7691154422788605	0.9205397301349325	
1.7103255755161826E12	1.8152173913043477	-4.923913043478261	7.380434782608695	3975.0915750915747	128.0	128.0	-2.6548692768656346	33.09098995816588	30.436120681300245	498.6211024071101	18.7444834404568	-4.67175572519084	7.022900763358779	0.7786259541984732	-0.04947526236881559	0.767616191904048	0.9250374812593702	
1.7103255755357146E12	1.8478260869565217	-4.934782608695652	7.315217391304348	3975.0915750915747	128.0	128.0	-2.656095344554823	33.11204947376841	30.455954129213588	498.6441813283183	19.403458762581202	-2.4885496183206106	6.061068702290076	1.1450381679389312	-0.05247376311844078	0.7691154422788605	0.9235382308845577	
1.7103255755552463E12	1.8478260869565217	-4.945652173913043	7.3478260869565215	3973.626373626373	128.0	128.0	-2.6426085999737503	33.11190523051086	30.46929663053711	498.6454073960075	19.618236973075508	-3.2061068702290076	6.442748091603053	0.5801526717557252	-0.05997001499250375	0.7721139430284857	0.9280359820089955	
1.710325575574778E12	1.826086956521739	-4.945652173913043	7.315217391304348	3975.0915750915747	128.0	128.0	-2.643690424405387	33.109380973503704	30.46569054909832	498.6338679354034	20.091859709246126	-2.4427480916030535	6.977099236641221	0.5190839694656488	-0.05547226386806597	0.7691154422788605	0.9310344827586207	
1.71032557559431E12	1.8478260869565217	-4.967391304347826	7.304347826086956	3954.5787545787543	128.0	128.0	-2.6332327882328976	33.095677864036304	30.46244507580341	498.6500953018779	20.391741441695864	-2.8854961832061066	7.007633587786259	0.5190839694656488	-0.046476761619190406	0.7496251874062968	0.9325337331334332	
1.7103255756138418E12	1.8478260869565217	-4.945652173913043	7.304347826086956	3948.7179487179483	128.0	128.0	-2.634530977550862	33.09214390422629	30.45761292667543	498.6499510586204	20.863921745290966	-2.8091603053435112	7.099236641221374	0.7175572519083969	-0.05697151424287856	0.767616191904048	0.9325337331334332	
1.7103255756333735E12	1.826086956521739	-4.923913043478261	7.293478260869565	3976.556776556776	128.0	128.0	-2.630347923081866	33.07086802373743	30.44052010065557	498.6509607614232	21.053817993857624	-2.9618320610687023	6.961832061068702	0.8091603053435115	-0.06596701649175413	0.7706146926536731	0.9325337331334332	
1.7103255756529055E12	1.8369565217391304	-4.945652173913043	7.315217391304348	3953.113553113553	128.0	128.0	-2.625732138840215	33.06459344203394	30.438861303193725	498.6553601807786	21.189262412698557	-3.16030534351145	6.961832061068702	0.8244274809160305	-0.04497751124437781	0.7766116941529235	0.9340329835082458	
1.7103255756724373E12	1.8478260869565217	-4.956521739130435	7.326086956521739	3976.556776556776	128.0	128.0	-2.6245060711510266	33.05723703589881	30.432730964747783	498.6376182600997	21.39228479770241	-3.16030534351145	6.778625954198473	0.916030534351145	-0.041979010494752625	0.7706146926536731	0.9370314842578711	
1.710325575691969E12	1.858695652173913	-4.956521739130435	7.3478260869565215	3973.626373626373	128.0	128.0	-2.6087835560779045	33.05016911627878	30.441385560200878	498.63422854354724	21.67117913617839	-3.099236641221374	6.641221374045801	0.9770992366412213	-0.04047976011994003	0.7721139430284857	0.9280359820089955	
1.710325575711501E12	1.8695652173913042	-4.967391304347826	7.33695652173913	3973.626373626373	128.0	128.0	-2.6138320700922097	33.04302907502998	30.42919700493777	498.63098307025234	22.03070545562571	-3.1755725190839694	6.488549618320611	0.6412213740458015	-0.05397301349325337	0.760119940029985	0.9430284857571214	
1.7103255757310327E12	1.8478260869565217	-4.967391304347826	7.315217391304348	3973.626373626373	128.0	128.0	-2.613110853804452	33.04144239919691	30.42833154539246	498.64648922043915	21.967166300674236	-3.1908396946564883	6.564885496183206	0.6870229007633587	-0.05697151424287856	0.775112443778111	0.9370314842578711	
1.7103255757505645E12	1.8478260869565217	-4.945652173913043	7.293478260869565	3954.5787545787543	128.0	128.0	-2.6145532863799676	33.04396665620406	30.429413369824097	498.63992615222054	22.148263710530248	-3.0076335877862594	6.6106870229007635	0.7480916030534351	-0.05997001499250375	0.7721139430284857	0.9310344827586207	
1.7103255757700964E12	1.858695652173913	-4.945652173913043	7.282608695652174	3973.626373626373	128.0	128.0	-2.6018598797154286	33.03834116915955	30.436481289444124	498.6414407064248	21.872759088606728	-3.1755725190839694	6.381679389312977	0.6259541984732824	-0.05997001499250375	0.7796101949025487	0.9385307346326837	
1.7103255757896282E12	1.858695652173913	-4.923913043478261	7.271739130434782	3975.0915750915747	128.0	128.0	-2.6042398934650297	33.04302907502998	30.43878918156495	498.6357430977516	22.145523088636768	-3.2213740458015265	6.442748091603053	0.916030534351145	-0.05997001499250375	0.7721139430284857	0.9205397301349325	
1.71032557580916E12	1.8369565217391304	-4.913043478260869	7.315217391304348	3950.18315018315	128.0	128.0	-2.5769779177877807	33.10938097350371	30.53240305571593	498.6485086260449	22.20971133824722	-3.0229007633587783	6.793893129770992	1.0381679389312977	-0.05247376311844078	0.7661169415292354	0.9460269865067465	
1.710325575828692E12	1.8478260869565217	-4.945652173913043	7.293478260869565	3975.0915750915747	128.0	128.0	-2.5692609035087712	33.12243498831213	30.553174084803356	498.6392049359328	22.540749614328103	-2.9923664122137406	6.625954198473282	0.7175572519083969	-0.038980509745127435	0.7781109445277361	0.9220389805097451	
1.7103255758482236E12	1.8369565217391304	-4.978260869565217	7.33695652173913	3975.0915750915747	128.0	128.0	-2.5691166602512197	33.11522282543455	30.54610616518333	498.6289636646466	22.442519955935474	-2.946564885496183	6.717557251908397	0.7633587786259541	-0.06146926536731634	0.7631184407796102	0.9325337331334332	
1.7103255758677554E12	1.8369565217391304	-4.956521739130435	7.3478260869565215	3973.626373626373	128.0	128.0	-2.5742372958943007	33.0557946033233	30.481557307428996	498.630766705366	22.667683680973493	-3.2061068702290076	6.564885496183206	0.42748091603053434	-0.041979010494752625	0.767616191904048	0.9145427286356821	
1.7103255758872874E12	1.8478260869565217	-4.923913043478261	7.315217391304348	3973.626373626373	128.0	128.0	-2.6064035423283034	33.0197337889354	30.413330246607096	498.62831456998765	22.7254531056229	-2.7938931297709924	6.931297709923664	0.48854961832061067	-0.038980509745127435	0.775112443778111	0.9295352323838081	
1.710325575906819E12	1.8478260869565217	-4.934782608695652	7.282608695652174	3956.043956043956	128.0	128.0	-2.613759948463434	33.023700478518066	30.409940530054634	498.6093465816196	22.80687842451077	-2.8702290076335877	6.946564885496183	0.6870229007633587	-0.06746626686656672	0.7691154422788605	0.9280359820089955	
1.7103255759263508E12	1.8478260869565217	-4.923913043478261	7.271739130434782	3973.626373626373	128.0	128.0	-2.6053217178966666	33.01966166730662	30.414339949409957	498.6053798920369	22.839910130490082	-2.946564885496183	6.931297709923664	0.8396946564885496	-0.04947526236881559	0.767616191904048	0.9220389805097451	
1.7103255759458828E12	1.8152173913043477	-4.945652173913043	7.293478260869565	3973.626373626373	128.0	128.0	-2.515890898214686	32.90231977728841	30.386428879073726	498.6127362981721	22.784520719590276	-3.114503816793893	6.870229007633587	0.4580152671755725	-0.04947526236881559	0.767616191904048	0.9295352323838081	
1.7103255759654146E12	1.8369565217391304	-4.945652173913043	7.326086956521739	3950.18315018315	128.0	128.0	-2.4077084550509995	33.88122664466222	31.473518189611223	498.6055241352945	22.435307793057895	-3.5114503816793894	6.473282442748092	1.0687022900763359	-0.05247376311844078	0.7691154422788605	0.9280359820089955	
1.7103255759849463E12	1.8369565217391304	-4.934782608695652	7.391304347826087	3975.0915750915747	128.0	128.0	-2.9248926550021954	33.82828936914079	30.903396714138594	498.6167751093835	22.587268064888487	-3.5572519083969465	6.870229007633587	1.1755725190839694	-0.05997001499250375	0.7586206896551724	0.9340329835082458	
1.7103255760044783E12	1.9130434782608696	-4.978260869565217	7.206521739130435	3975.0915750915747	128.0	128.0	-2.72417816211917	33.2979790327524	30.57380087063323	498.62557394809414	23.250714927996984	-2.9618320610687023	6.885496183206107	0.48854961832061067	-0.05697151424287856	0.7631184407796102	0.9325337331334332	
1.71032557602401E12	1.8478260869565217	-4.858695652173913	7.358695652173913	3973.626373626373	128.0	128.0	-2.6008501769125676	33.187416575839116	30.586566398926546	498.62405939388987	22.762235136298557	-2.5038167938931295	3.5725190839694654	2.1221374045801524	-0.046476761619190406	0.767616191904048	0.9325337331334332	
1.7103255760435417E12	1.7608695652173914	-4.989130434782608	7.5	3975.0915750915747	128.0	128.0	-2.5802233910826913	33.13282050285584	30.55259711177315	498.62889154301786	22.869479998288156	-5.969465648854961	8.15267175572519	0.15267175572519084	-0.05997001499250375	0.7616191904047975	0.9280359820089955	
1.7103255760630737E12	1.891304347826087	-4.956521739130435	7.054347826086956	3975.0915750915747	128.0	128.0	-2.560606308055676	33.12207438016825	30.56146807211257	498.6309109486236	23.34404031563286	1.1603053435114503	7.908396946564885	0.4580152671755725	-0.05247376311844078	0.7586206896551724	0.9310344827586207	
1.7103255760826055E12	1.826086956521739	-4.934782608695652	7.358695652173913	3973.626373626373	128.0	128.0	-2.5601014566542455	33.160370965048195	30.600269508393946	498.6389164494177	23.703566635080175	-6.717557251908397	9.969465648854962	-0.015267175572519083	-0.06746626686656672	0.7796101949025487	0.9175412293853074	
1.7103255761021372E12	1.826086956521739	-4.9021739130434785	7.228260869565217	3973.626373626373	128.0	128.0	-2.5315412916590323	33.15553881592022	30.62399752426118	498.64223404434136	23.055914408673576	-2.1374045801526718	7.251908396946565	0.6870229007633587	-0.06746626686656672	0.7691154422788605	0.9310344827586207	
1.7103255761216692E12	1.8369565217391304	-4.956521739130435	7.4021739130434785	3947.252747252747	128.0	128.0	-2.525483074841866	33.205230618146736	30.679747543304867	498.65983172176266	22.72271248372942	-4.641221374045801	5.938931297709924	0.7938931297709924	-0.05697151424287856	0.7706146926536731	0.9250374812593702	
1.710325576141201E12	1.8804347826086956	-4.945652173913043	7.304347826086956	3975.0915750915747	128.0	128.0	-2.506587208102609	33.236603526664204	30.730016318561596	498.63401217866095	22.251614004565955	-2.687022900763359	5.190839694656488	1.3129770992366412	-0.046476761619190406	0.767616191904048	0.9430284857571214	
1.7103255761607327E12	1.858695652173913	-4.967391304347826	7.326086956521739	3973.626373626373	128.0	128.0	-2.4847343545835443	33.301873600706294	30.81713924612275	498.6087696085894	21.66057725674835	-3.3893129770992365	5.557251908396946	0.6870229007633587	-0.05997001499250375	0.7841079460269865	0.9280359820089955	
1.7103255761802646E12	1.8478260869565217	-4.978260869565217	7.293478260869565	3973.626373626373	128.0	128.0	-2.451702648604232	33.41481607136918	30.96311342276495	498.62319393434456	21.931754580945324	-3.0229007633587783	5.984732824427481	0.5190839694656488	-0.034482758620689655	0.767616191904048	0.9370314842578711	
1.7103255761997964E12	1.8369565217391304	-4.934782608695652	7.293478260869565	3953.113553113553	128.0	128.0	-2.4401631880001053	33.48124009147168	31.04107690347158	498.62348242085966	21.99002885699616	-3.465648854961832	6.641221374045801	0.7938931297709924	-0.05397301349325337	0.767616191904048	0.9220389805097451	
1.7103255762193281E12	1.8152173913043477	-4.913043478260869	7.25	3975.0915750915747	128.0	128.0	-2.4641796903824438	33.44553988522767	30.981360194845227	498.64886923418874	22.426004102945818	-3.3435114503816794	6.2748091603053435	1.099236641221374	-0.05697151424287856	0.767616191904048	0.9325337331334332	
1.71032557623886E12	1.8695652173913042	-4.934782608695652	7.315217391304348	3973.626373626373	128.0	128.0	-2.504928410640766	33.333534995738866	30.8286065850981	498.6385558412738	22.246781855437977	-3.099236641221374	6.229007633587786	1.114503816793893	-0.05997001499250375	0.7721139430284857	0.9340329835082458	
1.7103255762583918E12	1.858695652173913	-4.934782608695652	7.304347826086956	3973.626373626373	128.0	128.0	-2.543729846922141	33.18352200788522	30.63979216096308	498.6360315842667	22.292146359937952	-3.0534351145038165	6.427480916030534	1.0229007633587786	-0.05397301349325337	0.760119940029985	0.9250374812593702	
1.7103255762779236E12	1.8804347826086956	-4.934782608695652	7.315217391304348	3950.18315018315	128.0	128.0	-2.5542596047234065	33.1356332463781	30.58137364165469	498.65355714005915	22.13109876288161	-3.3587786259541983	6.824427480916031	0.8244274809160305	-0.046476761619190406	0.7556221889055472	0.9295352323838081	
1.7103255762974556E12	1.8478260869565217	-4.956521739130435	7.33695652173913	3975.0915750915747	128.0	128.0	-2.563996024608138	33.125752583235816	30.561756558627675	498.6311994351387	22.38828449109608	-3.0381679389312977	6.748091603053435	0.48854961832061067	-0.06146926536731634	0.7631184407796102	0.9430284857571214	
1.7103255763169873E12	1.826086956521739	-5.032608695652174	7.282608695652174	3973.626373626373	128.0	128.0	-2.5736603228640944	33.132964746113394	30.559304423249298	498.656514126839	22.316811956979272	-3.099236641221374	6.870229007633587	0.4580152671755725	-0.04947526236881559	0.775112443778111	0.9115442278860569	
1.710325576336519E12	1.8369565217391304	-4.945652173913043	7.33695652173913	3973.626373626373	128.0	128.0	-2.57236213354613	33.13923932781689	30.566877194270756	498.6490134774463	22.16521229329256	-4.213740458015267	7.022900763358779	0.6717557251908397	-0.05697151424287856	0.7706146926536731	0.9325337331334332	
1.710325576356051E12	1.8369565217391304	-4.934782608695652	7.173913043478261	3975.0915750915747	128.0	128.0	-2.5767615529014534	33.1445763283463	30.56781477544484	498.6316321649113	21.64824445822769	-2.0763358778625953	6.671755725190839	0.9007633587786259	-0.04497751124437781	0.7766116941529235	0.9235382308845577	
1.7103255763755828E12	1.8152173913043477	-4.913043478260869	7.326086956521739	3960.43956043956	128.0	128.0	-2.5802233910826913	33.14472057160385	30.564497180521155	498.61807329870146	21.84052072054395	-5.2824427480916025	6.564885496183206	0.9618320610687022	-0.05697151424287856	0.775112443778111	0.9370314842578711	
1.7103255763951145E12	1.8369565217391304	-4.913043478260869	7.271739130434782	3975.0915750915747	128.0	128.0	-2.570414849569184	33.15669276198063	30.586277912411443	498.6286751781315	22.360661907274952	-2.6564885496183206	6.244274809160305	1.2213740458015268	-0.038980509745127435	0.7706146926536731	0.9325337331334332	
1.7103255764146465E12	1.8695652173913042	-4.956521739130435	7.358695652173913	3975.0915750915747	128.0	128.0	-2.569044538622444	33.15222122099653	30.583176682374084	498.65752382964183	22.370181962273357	-3.282442748091603	6.473282442748092	0.7633587786259541	-0.05697151424287856	0.7781109445277361	0.9250374812593702	
1.7103255764341782E12	1.8478260869565217	-4.989130434782608	7.304347826086956	3950.18315018315	128.0	128.0	-2.558947510593833	33.15755822152594	30.598610710932103	498.62304969108703	22.666818221428183	-2.564885496183206	6.931297709923664	0.564885496183206	-0.047976011994003	0.7586206896551724	0.9175412293853074	
1.71032557645371E12	1.826086956521739	-4.989130434782608	7.315217391304348	3976.556776556776	128.0	128.0	-2.550653523284617	33.143422382285884	30.592768859001264	498.63992615222054	22.744925945392364	-3.3435114503816794	7.297709923664121	0.48854961832061067	-0.04497751124437781	0.7766116941529235	0.9280359820089955	
1.710325576473242E12	1.8369565217391304	-4.956521739130435	7.315217391304348	3975.0915750915747	128.0	128.0	-2.5488504825652223	33.13476778683279	30.585917304267564	498.6398540305918	23.113972319838087	-2.8702290076335877	6.931297709923664	0.6564885496183206	-0.05997001499250375	0.7796101949025487	0.9175412293853074	
1.7103255764927737E12	1.8478260869565217	-4.923913043478261	7.293478260869565	3975.0915750915747	128.0	128.0	-2.5528171721478907	33.13318111099972	30.58036393885183	498.62290544782945	22.944847100358857	-3.068702290076336	7.2824427480916025	0.7480916030534351	-0.05697151424287856	0.7706146926536731	0.9370314842578711	
1.7103255765123057E12	1.8369565217391304	-4.913043478260869	7.282608695652174	3950.18315018315	128.0	128.0	-2.5535383884356486	33.124887123690506	30.571348735254855	498.63329096237317	23.10690440021806	-3.145038167938931	7.450381679389313	0.7786259541984732	-0.06146926536731634	0.775112443778111	0.9370314842578711	
1.7103255765318374E12	1.8478260869565217	-4.913043478260869	7.293478260869565	3963.369963369963	128.0	128.0	-2.551374739572375	33.11082340607923	30.55944866650685	498.6475710448708	22.89479468998846	-3.145038167938931	6.99236641221374	0.7022900763358778	-0.05697151424287856	0.7706146926536731	0.9370314842578711	
1.7103255765513691E12	1.826086956521739	-4.934782608695652	7.293478260869565	3975.0915750915747	128.0	128.0	-2.5507977665421686	33.11406887937414	30.563271112831966	498.64093585502343	23.028652432996328	-2.763358778625954	6.824427480916031	0.6717557251908397	-0.05697151424287856	0.7706146926536731	0.9325337331334332	
1.7103255765709011E12	1.8478260869565217	-4.967391304347826	7.33695652173913	3975.0915750915747	128.0	128.0	-2.5508698881709444	33.10635186509513	30.55548197692418	498.6350218814638	22.861402375865268	-2.900763358778626	6.229007633587786	1.0381679389312977	-0.047976011994003	0.7766116941529235	0.9340329835082458	
1.7103255765904329E12	1.8369565217391304	-4.967391304347826	7.33695652173913	3953.113553113553	128.0	128.0	-2.5418546845739707	33.08846570115873	30.54661101658476	498.6579565594145	22.92660032827858	-3.068702290076336	6.3969465648854955	0.7175572519083969	-0.05547226386806597	0.7661169415292354	0.9340329835082458	
1.7103255766099646E12	1.8369565217391304	-4.945652173913043	7.358695652173913	3975.0915750915747	128.0	128.0	-2.5294497644245344	33.075411686350314	30.545961921925777	498.6383394763875	22.69927295437729	-3.3435114503816794	6.870229007633587	0.7480916030534351	-0.037481259370314844	0.7586206896551724	0.9415292353823088	
1.7103255766294966E12	1.8369565217391304	-4.945652173913043	7.282608695652174	3975.0915750915747	128.0	128.0	-2.5313970484014807	33.087023268583216	30.555626220181733	498.6519704642261	22.846545320337455	-3.114503816793893	6.702290076335878	0.6412213740458015	-0.05397301349325337	0.7526236881559221	0.9295352323838081	
1.7103255766490283E12	1.8369565217391304	-4.945652173913043	7.293478260869565	3973.626373626373	128.0	128.0	-2.5356522244992528	33.08709539021199	30.551443165712737	498.64973469373405	23.029590014170413	-3.297709923664122	6.412213740458015	1.0229007633587786	-0.04047976011994003	0.7586206896551724	0.9310344827586207	
1.71032557666856E12	1.826086956521739	-4.934782608695652	7.315217391304348	3973.626373626373	128.0	128.0	-2.526492777644727	33.09639908032407	30.56990630267934	498.6102120411649	23.036441568904113	-3.282442748091603	6.519083969465648	0.9618320610687022	-0.05397301349325337	0.7631184407796102	0.9295352323838081	
1.710325576688092E12	1.8369565217391304	-4.945652173913043	7.315217391304348	3964.8351648351645	128.0	128.0	-2.522021236660628	33.15921701898778	30.63719578232715	498.6346612733199	23.238886980877755	-3.1908396946564883	6.809160305343511	0.7480916030534351	-0.05247376311844078	0.7586206896551724	0.9415292353823088	
1.7103255767076238E12	1.826086956521739	-4.945652173913043	7.315217391304348	3947.252747252747	128.0	128.0	-2.504135072724232	33.18013229133276	30.675997218608526	498.6371855303271	23.00593411993195	-3.3435114503816794	6.488549618320611	0.7480916030534351	-0.04947526236881559	0.7781109445277361	0.9295352323838081	
1.7103255767271555E12	1.826086956521739	-4.956521739130435	7.315217391304348	3973.626373626373	128.0	128.0	-2.507669032534246	33.18683960280891	30.67917057027466	498.6445419364622	22.970233913687935	-3.2671755725190836	6.778625954198473	0.6564885496183206	-0.037481259370314844	0.7586206896551724	0.9205397301349325	
1.7103255767466875E12	1.826086956521739	-4.934782608695652	7.293478260869565	3951.6483516483513	128.0	128.0	-2.5115636004881385	33.09026874187813	30.578705141389985	498.64093585502343	22.55690485917388	-2.900763358778626	6.824427480916031	0.7786259541984732	-0.047976011994003	0.7586206896551724	0.9205397301349325	
1.7103255767662192E12	1.8478260869565217	-4.945652173913043	7.293478260869565	3975.0915750915747	128.0	128.0	-2.5347867649539433	33.06524253669293	30.530455771738982	498.6371855303271	22.65369208499099	-2.9923664122137406	6.854961832061068	0.48854961832061067	-0.05697151424287856	0.767616191904048	0.9325337331334332	
1.710325576785751E12	1.858695652173913	-4.956521739130435	7.271739130434782	3973.626373626373	128.0	128.0	-2.541061346657437	33.059112198246986	30.518050851589546	498.6567304917253	22.663356383246946	-2.9770992366412212	6.809160305343511	0.8091603053435115	-0.05547226386806597	0.7661169415292354	0.9235382308845577	
1.710325576805283E12	1.8369565217391304	-4.978260869565217	7.293478260869565	3973.626373626373	128.0	128.0	-2.542431657604177	33.05853522521678	30.5161035676126	498.6374740168422	22.84423742821663	-3.145038167938931	6.854961832061068	0.6870229007633587	-0.05547226386806597	0.7691154422788605	0.9280359820089955	
1.7103255768248147E12	1.8478260869565217	-4.945652173913043	7.315217391304348	3973.626373626373	128.0	128.0	-2.5037744645803532	32.95100187671207	30.447227412131717	498.64108009828095	22.892414676238857	-3.465648854961832	6.534351145038167	0.9465648854961831	-0.05247376311844078	0.7796101949025487	0.9385307346326837	
1.7103255768443464E12	1.8369565217391304	-4.913043478260869	7.326086956521739	3966.300366300366	128.0	128.0	-2.40821330645243	34.25373485728918	31.84552155083675	498.6442534499471	22.445404821086505	-3.5114503816793894	6.549618320610687	1.0229007633587786	-0.034482758620689655	0.775112443778111	0.9250374812593702	
1.7103255768638784E12	1.858695652173913	-4.913043478260869	7.391304347826087	3972.161172161172	128.0	128.0	-2.8135368601723743	34.41204183245204	31.598504972279667	498.60898597347574	22.59902389037894	-3.6030534351145036	6.305343511450381	0.8396946564885496	-0.046476761619190406	0.793103448275862	0.9295352323838081	
1.7103255768834102E12	1.891304347826087	-4.978260869565217	7.228260869565217	3973.626373626373	128.0	128.0	-2.6152023810389498	33.33786229346541	30.722659912426465	498.63156004328255	23.656471211489585	-3.099236641221374	7.068702290076335	0.5801526717557252	-0.05547226386806597	0.7616191904047975	0.9310344827586207	
1.710325576902942E12	1.826086956521739	-4.858695652173913	7.326086956521739	3951.6483516483513	128.0	128.0	-2.5207951689714396	33.21273126753942	30.691936098567975	498.63285823260054	23.08238304643429	-1.816793893129771	3.801526717557252	2.16793893129771	-0.06146926536731634	0.7706146926536731	0.9250374812593702	
1.7103255769224739E12	1.75	-4.978260869565217	7.532608695652174	3948.7179487179483	128.0	128.0	-2.526853385788606	33.19383540080016	30.666982015011552	498.6462728555528	22.645542340939325	-6.946564885496183	7.786259541984733	0.061068702290076333	-0.05247376311844078	0.7691154422788605	0.9280359820089955	
