"sep=	"
Shimmer_6D72_TimestampSync_Unix_CAL	Shimmer_6D72_Accel_LN_X_CAL	Shimmer_6D72_Accel_LN_Y_CAL	Shimmer_6D72_Accel_LN_Z_CAL	Shimmer_6D72_Battery_CAL	Shimmer_6D72_ECG_EMG_Status1_CAL	Shimmer_6D72_ECG_EMG_Status2_CAL	Shimmer_6D72_ECG_LA-RA_24BIT_CAL	Shimmer_6D72_ECG_LL-LA_24BIT_CAL	Shimmer_6D72_ECG_LL-RA_24BIT_CAL	Shimmer_6D72_ECG_RESP_24BIT_CAL	Shimmer_6D72_ECG_Vx-RL_24BIT_CAL	Shimmer_6D72_Gyro_X_CAL	Shimmer_6D72_Gyro_Y_CAL	Shimmer_6D72_Gyro_Z_CAL	Shimmer_6D72_Mag_X_CAL	Shimmer_6D72_Mag_Y_CAL	Shimmer_6D72_Mag_Z_CAL	
ms	m/(s^2)	m/(s^2)	m/(s^2)	mV	no_units	no_units	mV	mV	mV	mV	mV	deg/s	deg/s	deg/s	local_flux	local_flux	local_flux	
1.7089494800094104E12	2.9891304347826084	-6.054347826086956	4.8478260869565215	3942.8571428571427	128.0	128.0	4.739184348485988	6.1056728489008965	10.844857197386885	483.1320450463349	592.3094060789831	-3.7404580152671754	7.114503816793893	1.0687022900763359	-0.06896551724137931	0.46176911544227883	0.047976011994003	
1.7089494800289426E12	2.9565217391304346	-6.043478260869565	4.826086956521739	3941.391941391941	128.0	128.0	4.725264874132261	6.095792185758613	10.821057059890874	483.1334874789104	592.3081078896652	-4.778625954198473	6.8396946564885495	0.916030534351145	-0.05997001499250375	0.4677661169415292	0.06746626686656672	
1.7089494800484749E12	2.967391304347826	-6.065217391304348	4.858695652173913	3934.065934065934	128.0	128.0	4.737525551024145	6.094710361326976	10.832235912351122	483.13298262750897	592.2827931979649	-4.549618320610687	6.748091603053435	0.916030534351145	-0.05697151424287856	0.4737631184407796	0.05847076461769115	
1.708949480068007E12	2.9891304347826084	-6.076086956521739	4.869565217391305	3941.391941391941	128.0	128.0	4.731972185608409	6.086993347047967	10.818965532656376	483.1311795867896	592.3226043370491	-3.7557251908396947	6.961832061068702	1.0687022900763359	-0.06596701649175413	0.4737631184407796	0.05547226386806597	
1.7089494800875393E12	2.9565217391304346	-6.054347826086956	4.826086956521739	3941.391941391941	128.0	128.0	4.739905564773746	6.102715862121089	10.842621426894835	483.13240565447876	592.2871204956914	-3.1908396946564883	6.793893129770992	0.6564885496183206	-0.05547226386806597	0.4752623688155922	0.05997001499250375	
1.7089494801070715E12	2.9565217391304346	-6.065217391304348	4.858695652173913	3941.391941391941	128.0	128.0	4.735578267047199	6.090383063600429	10.825961330647628	483.13103534353206	592.2824325898209	-3.5877862595419847	7.557251908396946	1.0381679389312977	-0.05547226386806597	0.46026986506746626	0.041979010494752625	
1.7089494801266038E12	2.934782608695652	-6.076086956521739	4.858695652173913	3941.391941391941	128.0	128.0	4.731900063979634	6.092402469206151	10.824302533185785	483.1329105058802	592.2850289684569	-4.045801526717557	7.251908396946565	1.1755725190839694	-0.06296851574212893	0.4677661169415292	0.05697151424287856	
1.708949480146136E12	2.934782608695652	-6.08695652173913	4.83695652173913	3916.4835164835163	128.0	128.0	4.727789131139414	6.1025716188635375	10.830360750002951	483.13240565447876	592.3001023888711	-3.3893129770992365	6.931297709923664	0.8091603053435115	-0.0704647676161919	0.4707646176911544	0.04947526236881559	
1.7089494801656682E12	2.9456521739130435	-6.065217391304348	4.8478260869565215	3942.8571428571427	128.0	128.0	4.730673996290445	6.107764376135394	10.83843837242584	483.1347856682284	592.3056557542868	-3.465648854961832	6.885496183206107	1.083969465648855	-0.06896551724137931	0.46176911544227883	0.047976011994003	
1.7089494801852004E12	2.967391304347826	-6.076086956521739	4.858695652173913	3942.8571428571427	128.0	128.0	4.726851549965328	6.088363657994707	10.815215207960035	483.1344250600845	592.3061606056882	-3.7709923664122136	7.190839694656488	0.6412213740458015	-0.047976011994003	0.46476761619190404	0.05997001499250375	
1.7089494802047327E12	2.967391304347826	-6.076086956521739	4.8478260869565215	3934.065934065934	128.0	128.0	4.733775226327804	6.093123685493909	10.826898911821713	483.1338480870543	592.3059442408019	-3.7862595419847325	6.778625954198473	1.0687022900763359	-0.05997001499250375	0.45727136431784104	0.05247376311844078	
1.708949480224265E12	2.967391304347826	-6.08695652173913	4.815217391304348	3942.8571428571427	128.0	128.0	4.722452130610005	6.098388564394542	10.820840695004547	483.13586749266	592.2998139023559	-3.0839694656488548	7.022900763358779	0.7022900763358778	-0.06596701649175413	0.46176911544227883	0.050974512743628186	
1.708949480243797E12	2.9456521739130435	-6.054347826086956	4.83695652173913	3942.8571428571427	128.0	128.0	4.731178847691876	6.108197105908049	10.839375953599925	483.13550688451613	592.3021939161056	-3.297709923664122	6.793893129770992	0.8244274809160305	-0.05247376311844078	0.47826086956521735	0.05997001499250375	
1.7089494802633293E12	2.934782608695652	-6.054347826086956	4.826086956521739	3941.391941391941	128.0	128.0	4.73572251030475	6.085695157730003	10.821417668034753	483.1349299114859	592.2990205644394	-3.49618320610687	7.32824427480916	0.6870229007633587	-0.06596701649175413	0.47976011994003	0.06896551724137931	
1.7089494802828616E12	2.9239130434782608	-6.065217391304348	4.8478260869565215	3939.9267399267396	128.0	128.0	4.744232862500294	6.119159593481969	10.863392455982263	483.13514627637227	592.2922411313344	-3.801526717557252	7.038167938931298	0.9923664122137404	-0.05697151424287856	0.4662668665667166	0.050974512743628186	
1.7089494803023938E12	2.9565217391304346	-6.0978260869565215	4.869565217391305	3917.948717948718	128.0	128.0	4.781375501319826	6.103869808181503	10.885245309501329	483.1370214387204	592.3157527823154	-3.877862595419847	7.099236641221374	0.6412213740458015	-0.05697151424287856	0.4662668665667166	0.047976011994003	
1.708949480321926E12	2.9456521739130435	-6.076086956521739	4.858695652173913	3944.322344322344	128.0	128.0	4.782240960865136	6.122477188405656	10.904718149270792	483.1352905196298	592.2887071715245	-3.1908396946564883	6.671755725190839	0.48854961832061067	-0.05247376311844078	0.45727136431784104	0.05697151424287856	
1.7089494803414583E12	2.934782608695652	-6.054347826086956	4.8478260869565215	3942.8571428571427	128.0	128.0	4.8032283548388905	6.097811591364336	10.901039946203227	483.13240565447876	592.2889956580395	-3.4351145038167936	6.8396946564885495	0.6564885496183206	-0.05547226386806597	0.4452773613193403	0.05697151424287856	
1.7089494803609905E12	2.9565217391304346	-6.032608695652174	4.826086956521739	3935.531135531135	128.0	128.0	4.776110622419194	6.107764376135395	10.883874998554589	483.1331989923953	592.293034469251	-4.412213740458015	6.1679389312977095	0.6106870229007634	-0.05247376311844078	0.46476761619190404	0.05247376311844078	
1.7089494803805227E12	2.934782608695652	-6.043478260869565	4.826086956521739	3942.8571428571427	128.0	128.0	4.755916566361972	6.062904723036853	10.818821289398825	483.13240565447876	592.30075148353	-4.183206106870228	6.519083969465648	0.6259541984732824	-0.05397301349325337	0.4737631184407796	0.06146926536731634	
1.708949480400055E12	2.9130434782608696	-6.054347826086956	4.826086956521739	3941.391941391941	128.0	128.0	4.721947279208575	6.12153960723157	10.843486886440145	483.1330547491378	592.3100551736421	-2.610687022900763	7.236641221374046	0.9465648854961831	-0.05247376311844078	0.45727136431784104	0.04947526236881559	
1.7089494804195872E12	2.9565217391304346	-6.054347826086956	4.880434782608695	3942.8571428571427	128.0	128.0	4.856886846648079	6.20260431797556	11.059491164623639	483.13125170841835	592.5173327347437	-3.099236641221374	6.7328244274809155	0.38167938931297707	-0.06146926536731634	0.46926536731634183	0.05547226386806597	
1.7089494804391194E12	2.9130434782608696	-6.108695652173913	4.913043478260869	3942.8571428571427	128.0	128.0	5.053706771577212	6.669519742670029	11.72322651424724	483.1329105058802	592.0558985538362	-4.244274809160305	7.099236641221374	0.6564885496183206	-0.06296851574212893	0.4707646176911544	0.05997001499250375	
1.7089494804586516E12	3.0217391304347827	-6.076086956521739	4.684782608695652	3917.948717948718	128.0	128.0	4.651412326265851	5.852165323753991	10.503577650019842	483.13211716796366	592.3233976749656	-3.0076335877862594	4.564885496183206	0.366412213740458	-0.05397301349325337	0.4662668665667166	0.050974512743628186	
1.7089494804781838E12	3.1956521739130435	-5.956521739130435	4.913043478260869	3942.8571428571427	128.0	128.0	4.755916566361972	5.9421009948374035	10.698017561199375	483.13226141122124	592.3701324904123	-1.4961832061068703	9.435114503816793	-0.6717557251908397	-0.05997001499250375	0.46476761619190404	0.05997001499250375	
1.708949480497716E12	2.8369565217391304	-6.141304347826087	4.989130434782608	3941.391941391941	128.0	128.0	4.758440823369125	6.024175408384253	10.782616231753378	483.1347856682284	592.3156806606867	-10.244274809160306	1.66412213740458	0.2900763358778626	-0.05247376311844078	0.46026986506746626	0.05697151424287856	
1.7089494805172483E12	2.9891304347826084	-6.239130434782608	4.83695652173913	3934.065934065934	128.0	128.0	4.7826736906377905	6.0312433280042805	10.813917018642071	483.13586749266	592.3130842820507	-1.4198473282442747	7.633587786259541	0.6564885496183206	-0.05397301349325337	0.4587706146926537	0.050974512743628186	
1.7089494805367805E12	3.043478260869565	-5.978260869565217	4.804347826086956	3941.391941391941	128.0	128.0	4.78490946112984	6.046028261903317	10.830937723033157	483.13254989773634	592.3083242545515	0.6106870229007634	4.519083969465648	0.3511450381679389	-0.0704647676161919	0.46476761619190404	0.06446776611694152	
1.7089494805563127E12	3.0	-5.956521739130435	4.83695652173913	3942.8571428571427	128.0	128.0	4.795944070332536	6.045090680729232	10.841034751061768	483.13096322190324	592.3185655258377	-7.511450381679389	6.33587786259542	0.015267175572519083	-0.05697151424287856	0.4662668665667166	0.050974512743628186	
1.708949480575845E12	2.891304347826087	-6.130434782608695	4.880434782608695	3941.391941391941	128.0	128.0	4.822484829722027	6.0278536114518175	10.850338441173845	483.12843896489613	592.3298164999267	-8.549618320610687	5.816793893129771	-0.2595419847328244	-0.06746626686656672	0.4677661169415292	0.06446776611694152	
1.7089494805953772E12	3.0	-6.228260869565217	4.826086956521739	3942.8571428571427	128.0	128.0	4.847511034907226	6.042710666979632	10.890221701886858	483.1282226000098	592.3293116485253	-2.6412213740458013	5.709923664122138	-0.030534351145038167	-0.0704647676161919	0.46026986506746626	0.041979010494752625	
1.7089494806149094E12	3.0217391304347827	-6.119565217391304	4.83695652173913	3916.4835164835163	128.0	128.0	4.892298566376993	6.020208718801585	10.912507285178577	483.1270686539494	592.3655167061706	-1.3129770992366412	6.3969465648854955	0.21374045801526717	-0.05997001499250375	0.46476761619190404	0.06446776611694152	
1.7089494806344417E12	3.0217391304347827	-6.1521739130434785	4.75	3942.8571428571427	128.0	128.0	4.937013976217982	5.998139500396193	10.935153476614175	483.1248328834573	592.4082848320347	-1.5877862595419847	6.3969465648854955	0.7938931297709924	-0.06596701649175413	0.46176911544227883	0.047976011994003	
1.7089494806539739E12	3.0	-6.0978260869565215	4.728260869565217	3942.8571428571427	128.0	128.0	4.932975165006538	6.033190611981227	10.966165776987765	483.1229577211092	592.4413886596428	-0.2595419847328244	5.679389312977099	0.8091603053435115	-0.05997001499250375	0.4707646176911544	0.041979010494752625	
1.708949480673506E12	2.9565217391304346	-6.054347826086956	4.793478260869565	3934.065934065934	128.0	128.0	4.910617460086043	6.086272130760208	10.996889590846251	483.124616518571	592.4072751292318	-1.450381679389313	5.145038167938931	0.7938931297709924	-0.07646176911544228	0.46926536731634183	0.06896551724137931	
1.7089494806930383E12	2.9891304347826084	-6.076086956521739	4.858695652173913	3942.8571428571427	128.0	128.0	4.817941167109152	6.138271825107554	10.956212992216706	483.1245443969422	592.3669591387462	-3.465648854961832	5.480916030534351	0.07633587786259542	-0.05397301349325337	0.46926536731634183	0.05847076461769115	
1.7089494807125706E12	3.0217391304347827	-6.08695652173913	4.869565217391305	3942.8571428571427	128.0	128.0	4.790246461659248	6.113389863179907	10.903636324839155	483.12447227531345	592.341283838902	-2.8702290076335877	5.740458015267175	0.16793893129770993	-0.04947526236881559	0.4767616191904048	0.06596701649175413	
1.7089494807321028E12	3.032608695652174	-6.054347826086956	4.826086956521739	3941.391941391941	128.0	128.0	4.771422716548767	6.113389863179907	10.884812579728674	483.1242559104271	592.3437359742804	-0.9312977099236641	5.801526717557252	0.38167938931297707	-0.06296851574212893	0.45277361319340326	0.06446776611694152	
1.708949480751635E12	2.9891304347826084	-6.065217391304348	4.760869565217392	3936.9963369963366	128.0	128.0	4.754474133786456	6.074011453868325	10.82848558765478	483.12209226156386	592.3471256908329	-0.8244274809160305	6.870229007633587	0.8854961832061068	-0.05397301349325337	0.4662668665667166	0.047976011994003	
1.7089494807711672E12	3.010869565217391	-6.08695652173913	4.8478260869565215	3916.4835164835163	128.0	128.0	4.761469931777708	6.081079373488351	10.84254930526606	483.1232462076243	592.351885718332	-0.41221374045801523	6.442748091603053	0.8702290076335878	-0.05247376311844078	0.46476761619190404	0.05997001499250375	
1.7089494807906995E12	3.043478260869565	-6.08695652173913	4.880434782608695	3942.8571428571427	128.0	128.0	4.753248066097267	6.079348454397733	10.832596520495	483.1213710452761	592.3530396643924	-1.297709923664122	6.381679389312977	0.9312977099236641	-0.05697151424287856	0.4587706146926537	0.05547226386806597	
1.7089494808102317E12	2.9782608695652173	-6.076086956521739	4.923913043478261	3941.391941391941	128.0	128.0	4.765652986246704	6.095936429016164	10.861589415262868	483.1215874101624	592.3405626226142	-2.2900763358778624	6.412213740458015	0.8549618320610687	-0.04047976011994003	0.46476761619190404	0.046476761619190406	
1.708949480829764E12	3.043478260869565	-6.08695652173913	4.793478260869565	3932.6007326007325	128.0	128.0	4.77531728450266	6.114399565982768	10.889716850485428	483.11992861270056	592.3391201900388	-1.5419847328244274	6.5038167938931295	0.6717557251908397	-0.04497751124437781	0.46476761619190404	0.06446776611694152	
1.7089494808492961E12	3.0217391304347827	-6.032608695652174	4.858695652173913	3942.8571428571427	128.0	128.0	4.770052405602027	6.113029255036026	10.883081660638053	483.12064982898835	592.3261382968591	-1.8473282442748091	6.564885496183206	1.3740458015267174	-0.05397301349325337	0.4662668665667166	0.047976011994003	
1.7089494808688284E12	3.0	-6.065217391304348	4.8478260869565215	3941.391941391941	128.0	128.0	4.7713505949199915	6.118149890679109	10.8895004855991	483.121082558761	592.3242631345109	-3.0076335877862594	7.236641221374046	1.114503816793893	-0.04497751124437781	0.4752623688155922	0.04947526236881559	
1.7089494808883606E12	3.0217391304347827	-6.108695652173913	4.934782608695652	3941.391941391941	128.0	128.0	4.7658693511330315	6.1146159308690935	10.880485282002125	483.12403954554077	592.3182770393225	-2.763358778625954	6.870229007633587	1.083969465648855	-0.06296851574212893	0.4452773613193403	0.04947526236881559	
1.7089494809078928E12	3.010869565217391	-6.119565217391304	4.83695652173913	3941.391941391941	128.0	128.0	4.768177243253857	6.097595226478007	10.865772469731864	483.1238231806545	592.3151758092852	-0.9770992366412213	6.916030534351145	1.2519083969465647	-0.05397301349325337	0.46176911544227883	0.04047976011994003	
1.708949480927425E12	2.9891304347826084	-6.054347826086956	4.826086956521739	3916.4835164835163	128.0	128.0	4.769403310943045	6.102787983749864	10.87219129469291	483.123967423912	592.3241910128821	-0.38167938931297707	7.022900763358779	1.2519083969465647	-0.05997001499250375	0.45277361319340326	0.046476761619190406	
1.7089494809469573E12	2.9565217391304346	-6.043478260869565	4.891304347826087	3942.8571428571427	128.0	128.0	4.7637778238985335	6.076030859474046	10.83980868337258	483.1232462076243	592.323253431708	-2.4122137404580153	6.824427480916031	1.0381679389312977	-0.05397301349325337	0.46176911544227883	0.050974512743628186	
1.7089494809664895E12	2.9782608695652173	-6.08695652173913	4.8478260869565215	3941.391941391941	128.0	128.0	4.762695999466897	6.079204211140181	10.841900210607077	483.12389530228324	592.3248401075411	-2.564885496183206	6.595419847328244	1.465648854961832	-0.04497751124437781	0.46476761619190404	0.04947526236881559	
1.7089494809860217E12	3.0	-6.054347826086956	4.8478260869565215	3932.6007326007325	128.0	128.0	4.772937270753059	6.0779060218222165	10.850843292575275	483.1232462076243	592.3193588637541	-1.5267175572519083	6.824427480916031	1.5267175572519083	-0.05697151424287856	0.4767616191904048	0.050974512743628186	
1.7089494810055537E12	3.010869565217391	-6.054347826086956	4.9021739130434785	3915.0183150183148	128.0	128.0	4.777985784767364	6.066222317960539	10.844208102727903	483.1249050050861	592.3015448214466	-2.015267175572519	6.488549618320611	1.2213740458015268	-0.05247376311844078	0.4677661169415292	0.05247376311844078	
1.708949481025086E12	2.9891304347826084	-6.054347826086956	4.891304347826087	3941.391941391941	128.0	128.0	4.767167540450996	6.089950333827773	10.857117874278769	483.1257704646314	592.3083242545515	-2.229007633587786	7.3893129770992365	1.282442748091603	-0.047976011994003	0.4707646176911544	0.034482758620689655	
1.7089494810446182E12	2.9565217391304346	-6.043478260869565	4.891304347826087	3941.391941391941	128.0	128.0	4.761181445262605	6.061895020233991	10.823076465496596	483.1266359241767	592.3242631345109	-2.351145038167939	7.603053435114504	1.4351145038167938	-0.05397301349325337	0.48425787106446777	0.05847076461769115	
1.7089494810641504E12	2.967391304347826	-6.065217391304348	4.858695652173913	3942.8571428571427	128.0	128.0	4.769547554200597	6.0837478737530555	10.853295427953652	483.12916018118386	592.3233255533369	-2.2900763358778624	7.374045801526718	1.4961832061068703	-0.05547226386806597	0.45277361319340326	0.041979010494752625	
1.7089494810836826E12	2.967391304347826	-6.065217391304348	4.880434782608695	3917.948717948718	128.0	128.0	4.7751009196163325	6.053240424780896	10.828341344397229	483.13226141122124	592.3140218632248	-2.3664122137404577	7.114503816793893	1.2671755725190839	-0.06746626686656672	0.46026986506746626	0.05697151424287856	
1.7089494811032148E12	2.9891304347826084	-6.065217391304348	4.891304347826087	3942.8571428571427	128.0	128.0	4.766590567420789	6.084324846783262	10.850915414204051	483.13211716796366	592.3057999975443	-2.1374045801526718	6.65648854961832	1.2671755725190839	-0.05397301349325337	0.4662668665667166	0.047976011994003	
1.708949481122747E12	2.9782608695652173	-6.032608695652174	4.891304347826087	3942.8571428571427	128.0	128.0	4.774668189843678	6.051004654288847	10.825672844132525	483.1347135465996	592.3120745792478	-2.519083969465649	7.0534351145038165	1.1450381679389312	-0.05397301349325337	0.4662668665667166	0.047976011994003	
1.7089494811422793E12	2.9782608695652173	-6.054347826086956	4.869565217391305	3934.065934065934	128.0	128.0	4.774884554730005	6.039176707169617	10.814061261899623	483.13485778985716	592.3147430795125	-2.7938931297709924	6.854961832061068	1.2061068702290076	-0.047976011994003	0.46476761619190404	0.05247376311844078	
1.7089494811618115E12	2.9456521739130435	-6.032608695652174	4.891304347826087	3942.8571428571427	128.0	128.0	4.785342190902495	6.08006967068549	10.865411861587985	483.1350020331147	592.2994532942121	-2.33587786259542	7.206106870229007	1.114503816793893	-0.04497751124437781	0.4752623688155922	0.05697151424287856	
1.7089494811813438E12	2.934782608695652	-6.032608695652174	4.913043478260869	3942.8571428571427	128.0	128.0	4.768754216284063	6.062039263491543	10.830793479775606	483.13327111402407	592.3068097003472	-3.450381679389313	7.175572519083969	1.1908396946564885	-0.06146926536731634	0.4767616191904048	0.04047976011994003	
1.708949481200876E12	2.9565217391304346	-6.043478260869565	4.945652173913043	3936.9963369963366	128.0	128.0	4.770413013745906	6.060524709287251	10.830937723033157	483.13550688451613	592.3173394581485	-3.541984732824427	7.114503816793893	1.5572519083969465	-0.08095952023988005	0.4542728635682159	0.06146926536731634	
1.7089494812204082E12	2.967391304347826	-6.0978260869565215	4.891304347826087	3942.8571428571427	128.0	128.0	4.781663987834929	6.065501101672781	10.84716508950771	483.1364444656902	592.3117860927327	-2.4732824427480917	6.854961832061068	1.1755725190839694	-0.06746626686656672	0.4707646176911544	0.038980509745127435	
1.7089494812399404E12	2.967391304347826	-6.043478260869565	4.913043478260869	3916.4835164835163	128.0	128.0	4.784188244842082	6.0638423042109375	10.84803054905302	483.13875235781103	592.3263546617454	-2.213740458015267	7.022900763358779	1.3282442748091603	-0.05997001499250375	0.4707646176911544	0.05247376311844078	
1.7089494812594727E12	2.967391304347826	-6.043478260869565	4.913043478260869	3942.8571428571427	128.0	128.0	4.833158830780844	6.031820301034486	10.86497913181533	483.14120449318943	592.3275807294347	-3.0839694656488548	7.511450381679389	1.5419847328244274	-0.04947526236881559	0.4542728635682159	0.05547226386806597	
1.708949481279005E12	2.967391304347826	-6.065217391304348	4.913043478260869	3941.391941391941	128.0	128.0	4.817436315707721	6.093917023410444	10.911353339118165	483.1428632906513	592.2972175237201	-3.0229007633587783	7.145038167938931	1.8473282442748091	-0.047976011994003	0.4707646176911544	0.04947526236881559	
1.708949481298537E12	2.9565217391304346	-6.108695652173913	4.956521739130435	3932.6007326007325	128.0	128.0	4.818806626654461	6.031748179405711	10.850554806060172	483.1443057232268	592.3042854433401	-3.6488549618320607	7.267175572519084	1.7557251908396947	-0.06296851574212893	0.47826086956521735	0.05697151424287856	
1.7089494813180693E12	2.9782608695652173	-6.08695652173913	4.9021739130434785	3915.0183150183148	128.0	128.0	4.7576474854525905	6.081367860003455	10.839015345456046	483.14502693951454	592.2901496041	-3.0229007633587783	7.145038167938931	1.7099236641221374	-0.06896551724137931	0.4737631184407796	0.06596701649175413	
1.7089494813376016E12	2.9565217391304346	-6.076086956521739	4.9021739130434785	3941.391941391941	128.0	128.0	4.7449540787880515	6.043648248153717	10.788602326941769	483.14884938583964	592.2982993481517	-1.7404580152671756	7.7251908396946565	1.6335877862595418	-0.05547226386806597	0.4707646176911544	0.046476761619190406	
1.7089494813571338E12	2.967391304347826	-6.054347826086956	4.945652173913043	3941.391941391941	128.0	128.0	4.749858349544805	6.099254023939851	10.849112373484656	483.14892150746846	592.3592421244672	-2.381679389312977	8.290076335877862	1.7862595419847327	-0.05547226386806597	0.45727136431784104	0.038980509745127435	
1.708949481376666E12	2.9456521739130435	-6.076086956521739	4.978260869565217	3942.8571428571427	128.0	128.0	5.296107565892645	6.732554046220071	12.028661612112716	483.14863302095335	592.3420771768185	-3.5725190839694654	9.022900763358779	1.2519083969465647	-0.06746626686656672	0.46476761619190404	0.05247376311844078	
1.7089494813961982E12	2.9456521739130435	-6.0978260869565215	4.923913043478261	3916.4835164835163	128.0	128.0	4.812964774723622	6.411829163054128	11.22479393777775	483.1551960891719	592.1272989663242	-3.7709923664122136	8.030534351145038	1.3893129770992365	-0.05247376311844078	0.45277361319340326	0.05697151424287856	
1.7089494814157305E12	2.9456521739130435	-6.065217391304348	4.684782608695652	3942.8571428571427	128.0	128.0	4.727284279737983	5.699700200521971	10.426984480259954	483.1546912377705	592.452928120247	-3.16030534351145	8.580152671755725	2.030534351145038	-0.05997001499250375	0.45727136431784104	0.05997001499250375	
1.7089494814352627E12	2.9782608695652173	-6.0	4.771739130434782	3942.8571428571427	128.0	128.0	4.73932859174354	5.952486509381117	10.691815101124657	483.15981187341356	592.3584487865506	-2.4427480916030535	12.778625954198473	1.2061068702290076	-0.05397301349325337	0.4542728635682159	0.06146926536731634	
1.708949481454795E12	2.8152173913043477	-6.108695652173913	5.3478260869565215	3932.6007326007325	128.0	128.0	4.72201940083735	6.050716167773745	10.772735568611095	483.16082157621645	592.3122909441341	-9.648854961832061	10.50381679389313	0.7175572519083969	-0.06296851574212893	0.45277361319340326	0.04947526236881559	
1.7089494814743271E12	3.0	-6.184782608695652	4.608695652173913	3942.8571428571427	128.0	128.0	4.756060809619523	6.067664750536055	10.823725560155578	483.16435553602645	592.2882744417518	-8.396946564885496	9.419847328244275	0.6564885496183206	-0.05247376311844078	0.4677661169415292	0.06446776611694152	
1.7089494814938594E12	3.0	-5.967391304347826	4.771739130434782	3941.391941391941	128.0	128.0	4.789669488629042	6.081295738374679	10.87096522700372	483.16522099557176	592.2867598875475	-2.1068702290076335	9.694656488549619	0.48854961832061067	-0.047976011994003	0.46026986506746626	0.05697151424287856	
1.7089494815133916E12	2.8369565217391304	-5.913043478260869	4.945652173913043	3942.8571428571427	128.0	128.0	4.805536246959716	6.0603804660297	10.865916712989415	483.16493250905665	592.3015448214466	-7.633587786259541	8.870229007633588	0.6564885496183206	-0.04947526236881559	0.4542728635682159	0.047976011994003	
1.7089494815329238E12	2.858695652173913	-6.130434782608695	4.858695652173913	3942.8571428571427	128.0	128.0	4.810368396087694	6.047975545880264	10.858343941967957	483.1669519146624	592.3031314972797	-10.213740458015266	7.206106870229007	0.2595419847328244	-0.0704647676161919	0.4707646176911544	0.05697151424287856	
1.708949481552456E12	2.880434782608696	-6.184782608695652	4.913043478260869	3917.948717948718	128.0	128.0	4.8546510761560295	6.018117191567086	10.872768267723115	483.1668797930336	592.3552033132557	-3.3893129770992365	7.526717557251908	0.2900763358778626	-0.06146926536731634	0.4542728635682159	0.04047976011994003	
1.7089494815719883E12	2.9239130434782608	-6.065217391304348	4.815217391304348	3942.8571428571427	128.0	128.0	4.9088144193666485	6.028574827739576	10.937389247106225	483.16673554977604	592.3513087453018	0.9923664122137404	7.267175572519084	0.8244274809160305	-0.05397301349325337	0.46176911544227883	0.050974512743628186	
1.7089494815915205E12	2.9565217391304346	-5.967391304347826	4.760869565217392	3942.8571428571427	128.0	128.0	4.9287199889087665	5.972680565438339	10.901400554347106	483.1696925365559	592.3849174243114	-0.13740458015267176	7.1603053435114505	0.8549618320610687	-0.06896551724137931	0.46176911544227883	0.06596701649175413	
1.7089494816110527E12	2.902173913043478	-5.967391304347826	4.815217391304348	3934.065934065934	128.0	128.0	4.904559243268877	6.060164101143372	10.96472334441225	483.1711349691314	592.3691227876095	-2.9923664122137406	7.175572519083969	0.3969465648854962	-0.06596701649175413	0.4662668665667166	0.06146926536731634	
1.708949481630585E12	2.902173913043478	-5.989130434782608	4.891304347826087	3944.322344322344	128.0	128.0	4.872032388690995	6.135098473441419	11.007130862132414	483.17243315844934	592.3410674740157	-3.3893129770992365	6.961832061068702	1.0229007633587786	-0.06746626686656672	0.46026986506746626	0.05697151424287856	
1.7089494816501172E12	2.934782608695652	-6.065217391304348	4.869565217391305	3942.8571428571427	128.0	128.0	4.7698360407157	6.160629530028049	10.930465570743749	483.1752459019716	592.3189261339816	-3.0534351145038165	6.961832061068702	0.9618320610687022	-0.04497751124437781	0.4677661169415292	0.05697151424287856	
1.7089494816696494E12	2.934782608695652	-6.08695652173913	4.858695652173913	3942.8571428571427	128.0	128.0	4.744377105757845	6.158826489308655	10.9032035950665	483.17625560477444	592.3130121604219	-2.610687022900763	6.916030534351145	0.8091603053435115	-0.06596701649175413	0.4512743628185907	0.06146926536731634	
1.7089494816891816E12	2.9456521739130435	-6.065217391304348	4.923913043478261	3941.391941391941	128.0	128.0	4.730024901631463	6.102932227007416	10.83295712863888	483.17769803734996	592.3151758092852	-1.9389312977099236	6.137404580152672	0.9465648854961831	-0.05547226386806597	0.45277361319340326	0.05247376311844078	
1.7089494817087139E12	2.880434782608696	-6.08695652173913	5.010869565217392	3916.4835164835163	128.0	128.0	4.720865454776938	6.13062693245732	10.851492387234257	483.1808713890161	592.3143824713686	-0.8702290076335878	8.16793893129771	1.2366412213740459	-0.06296851574212893	0.46476761619190404	0.05697151424287856	
1.708949481728246E12	2.9891304347826084	-6.054347826086956	4.815217391304348	3942.8571428571427	128.0	128.0	4.721803035951023	6.11057711965765	10.832380155608673	483.18043865924346	592.3251285940562	-0.42748091603053434	6.427480916030534	1.5725190839694656	-0.05547226386806597	0.46026986506746626	0.05247376311844078	
1.7089494817477783E12	2.902173913043478	-5.956521739130435	4.815217391304348	3944.322344322344	128.0	128.0	4.716898765194269	6.1365409060169345	10.853439671211204	483.18527080837146	592.3275086078058	0.030534351145038167	8.015267175572518	1.4045801526717556	-0.04947526236881559	0.4737631184407796	0.047976011994003	
1.7089494817673105E12	2.891304347826087	-5.967391304347826	4.880434782608695	3932.6007326007325	128.0	128.0	4.715239967732426	6.140435473970827	10.855675441703253	483.18779506537857	592.3382547304934	-0.8702290076335878	6.33587786259542	1.282442748091603	-0.047976011994003	0.46026986506746626	0.046476761619190406	
1.7089494817868428E12	2.9565217391304346	-5.989130434782608	4.891304347826087	3942.8571428571427	128.0	128.0	4.715889062391408	6.154787678097209	10.870676740488618	483.189598106098	592.3246958642836	-2.564885496183206	6.213740458015267	0.5038167938931297	-0.05697151424287856	0.4662668665667166	0.06146926536731634	
1.708949481806375E12	2.9565217391304346	-5.978260869565217	4.967391304347826	3942.8571428571427	128.0	128.0	4.723245468526539	6.172385355518504	10.895630824045043	483.1901029574994	592.3275086078058	-2.4580152671755724	6.641221374045801	0.7938931297709924	-0.041979010494752625	0.4587706146926537	0.047976011994003	
1.7089494818259072E12	2.9782608695652173	-6.0	4.913043478260869	3939.9267399267396	128.0	128.0	4.731900063979634	6.151470083173523	10.883370147153157	483.1901029574994	592.3407068658718	-0.9923664122137404	6.366412213740458	0.9312977099236641	-0.05547226386806597	0.4677661169415292	0.05697151424287856	
1.7089494818454395E12	2.934782608695652	-6.021739130434782	4.989130434782608	3941.391941391941	128.0	128.0	4.754546255415232	6.132718459691819	10.887264715107051	483.19277145776414	592.3391923116675	-0.04580152671755725	7.312977099236641	1.1755725190839694	-0.05547226386806597	0.45727136431784104	0.04947526236881559	
1.7089494818649717E12	2.891304347826087	-6.032608695652174	4.934782608695652	3917.948717948718	128.0	128.0	4.712787832354049	6.148080366621061	10.86086819897511	483.19558420128635	592.3354419869712	-1.3129770992366412	6.8396946564885495	1.1755725190839694	-0.04947526236881559	0.4662668665667166	0.06146926536731634	
1.708949481884504E12	2.9130434782608696	-6.021739130434782	4.934782608695652	3942.8571428571427	128.0	128.0	4.733054010040046	6.149594920825352	10.882648930865399	483.1948629849986	592.3345044057971	-0.9923664122137404	6.534351145038167	1.0687022900763359	-0.05247376311844078	0.4677661169415292	0.05697151424287856	
1.7089494819040361E12	2.9130434782608696	-5.967391304347826	4.945652173913043	3942.8571428571427	128.0	128.0	4.720576968261835	6.1365409060169345	10.857117874278769	483.1958005661727	592.3323407569338	-0.2748091603053435	6.427480916030534	0.8244274809160305	-0.04047976011994003	0.4752623688155922	0.046476761619190406	
1.7089494819235684E12	2.902173913043478	-5.989130434782608	4.978260869565217	3932.6007326007325	128.0	128.0	4.743367402954984	6.1176450392776776	10.861012442232662	483.19334843079434	592.3363074465165	-1.3129770992366412	6.290076335877862	0.6564885496183206	-0.0704647676161919	0.4707646176911544	0.05697151424287856	
1.7089494819431006E12	2.902173913043478	-5.989130434782608	4.967391304347826	3942.8571428571427	128.0	128.0	4.746252268106016	6.13733424393347	10.883586512039486	483.19673814734676	592.3343601625395	-1.984732824427481	6.183206106870228	0.7480916030534351	-0.05997001499250375	0.46026986506746626	0.05247376311844078	
1.7089494819626328E12	2.902173913043478	-5.989130434782608	4.934782608695652	3942.8571428571427	128.0	128.0	4.751805633521752	6.108269227536825	10.860074861058576	483.19832482317986	592.3371729060618	-1.618320610687023	6.244274809160305	0.6870229007633587	-0.06746626686656672	0.45727136431784104	0.05997001499250375	
1.708949481982165E12	2.891304347826087	-5.989130434782608	4.967391304347826	3941.391941391941	128.0	128.0	4.758224458482798	6.1313481487450785	10.889572607227876	483.1976036068921	592.335153500456	-1.6793893129770991	6.442748091603053	0.2900763358778626	-0.05547226386806597	0.45277361319340326	0.04947526236881559	
1.7089494820016973E12	2.880434782608696	-5.978260869565217	4.956521739130435	3942.8571428571427	128.0	128.0	4.757719607081367	6.118510498822986	10.876230105904353	483.19919028272517	592.3239746479958	-1.9694656488549618	6.366412213740458	0.9312977099236641	-0.06146926536731634	0.46176911544227883	0.037481259370314844	
1.7089494820212295E12	2.9130434782608696	-6.0	4.956521739130435	3917.948717948718	128.0	128.0	4.776182744047969	6.088507901252258	10.864690645300227	483.1983969448086	592.3192867421254	-2.0763358778625953	6.152671755725191	0.732824427480916	-0.04497751124437781	0.4677661169415292	0.06446776611694152	
1.7089494820407617E12	2.9239130434782608	-5.989130434782608	4.989130434782608	3942.8571428571427	128.0	128.0	4.770052405602027	6.090887915001859	10.860940320603886	483.1969545122331	592.3053672677717	-2.6412213740458013	5.969465648854961	0.9923664122137404	-0.05697151424287856	0.4587706146926537	0.047976011994003	
1.708949482060294E12	2.9239130434782608	-6.010869565217392	4.989130434782608	3942.8571428571427	128.0	128.0	4.7737306086695925	6.089806090570222	10.863536699239814	483.1989739178388	592.3076751598925	-2.9618320610687023	5.862595419847328	0.8702290076335878	-0.04947526236881559	0.46176911544227883	0.05547226386806597	
1.7089494820798262E12	2.934782608695652	-6.010869565217392	4.978260869565217	3932.6007326007325	128.0	128.0	4.762912364353224	6.084108481896934	10.847020846250158	483.19745936363455	592.3034199837947	-3.099236641221374	5.938931297709924	0.6717557251908397	-0.038980509745127435	0.46176911544227883	0.04047976011994003	
1.7089494820993584E12	2.9565217391304346	-6.021739130434782	4.945652173913043	3942.8571428571427	128.0	128.0	4.773658487040817	6.100912821401693	10.87457130844251	483.19536783640007	592.2968569155761	-3.3435114503816794	6.030534351145038	0.6564885496183206	-0.047976011994003	0.45727136431784104	0.04947526236881559	
1.7089494821188906E12	2.934782608695652	-5.978260869565217	4.989130434782608	3941.391941391941	128.0	128.0	4.7696196758293725	6.106538308446205	10.876157984275578	483.1978920934072	592.3056557542868	-3.66412213740458	6.198473282442748	0.6259541984732824	-0.041979010494752625	0.4587706146926537	0.047976011994003	
1.7089494821384229E12	2.9239130434782608	-6.0	5.010869565217392	3941.391941391941	128.0	128.0	4.820609667373857	6.078122386708545	10.898732054082402	483.1970987554907	592.2995254158409	-4.1679389312977095	6.259541984732824	0.7480916030534351	-0.05397301349325337	0.4737631184407796	0.05847076461769115	
1.708949482157955E12	2.9456521739130435	-5.989130434782608	5.010869565217392	3941.391941391941	128.0	128.0	4.821186640404063	6.096224915531268	10.917411555935331	483.1978199717784	592.2823604681922	-3.66412213740458	5.923664122137405	0.42748091603053434	-0.05547226386806597	0.46476761619190404	0.05697151424287856	
1.7089494821774873E12	2.9456521739130435	-5.956521739130435	4.978260869565217	3916.4835164835163	128.0	128.0	4.824576356956525	6.074660548527307	10.899236905483832	483.19890179621007	592.2668543180054	-3.7404580152671754	6.305343511450381	0.3969465648854962	-0.04497751124437781	0.4677661169415292	0.046476761619190406	
1.7089494821970195E12	2.934782608695652	-5.945652173913043	4.9021739130434785	3942.8571428571427	128.0	128.0	4.804526544156855	6.097955834621888	10.902482378778743	483.19644966083166	592.2775283190642	-4.3206106870229	6.015267175572519	0.6106870229007634	-0.05697151424287856	0.4662668665667166	0.043478260869565216	
1.7089494822165518E12	2.9130434782608696	-5.945652173913043	4.945652173913043	3941.391941391941	128.0	128.0	4.782457325751463	6.085190306328571	10.867647632080034	483.1963775392029	592.2700997913004	-4.687022900763359	6.305343511450381	0.5190839694656488	-0.046476761619190406	0.4767616191904048	0.05847076461769115	
1.708949482236084E12	2.9130434782608696	-5.978260869565217	4.978260869565217	3932.6007326007325	128.0	128.0	4.757358998937487	6.079492697655285	10.836851696592772	483.19471874174104	592.3130121604219	-4.931297709923664	6.2748091603053435	0.1984732824427481	-0.05547226386806597	0.46026986506746626	0.041979010494752625	
1.7089494822556162E12	2.9239130434782608	-6.0	4.956521739130435	3941.391941391941	128.0	128.0	4.914512028039936	6.275807771182987	11.190319799222923	483.193132065908	592.4531444851333	-5.236641221374046	6.381679389312977	0.42748091603053434	-0.06746626686656672	0.46476761619190404	0.04947526236881559	
1.7089494822751484E12	2.9130434782608696	-5.989130434782608	4.967391304347826	3941.391941391941	128.0	128.0	4.95540499155581	6.6466571863481025	11.602062177903912	483.1937090389382	592.0765253396661	-4.8396946564885495	6.7328244274809155	0.030534351145038167	-0.06596701649175413	0.46926536731634183	0.05847076461769115	
1.7089494822946807E12	2.9891304347826084	-6.0	4.923913043478261	3941.391941391941	128.0	128.0	4.656028110507502	5.802834129671351	10.458862240178853	483.19305994427924	592.3794361805244	-4.687022900763359	5.3893129770992365	0.3053435114503817	-0.05997001499250375	0.45727136431784104	0.05247376311844078	
1.708949482314213E12	3.0869565217391304	-6.010869565217392	4.717391304347826	3941.391941391941	128.0	128.0	4.757431120566263	5.936836115936771	10.694267236503034	483.18664111931815	592.369267030867	-5.358778625954198	-0.21374045801526717	-0.549618320610687	-0.08095952023988005	0.4542728635682159	0.050974512743628186	
1.708949482333745E12	2.8152173913043477	-5.945652173913043	5.217391304347826	3917.948717948718	128.0	128.0	4.794141029613141	6.036724571791241	10.830865601404382	483.18426110556857	592.3135891334521	-5.923664122137405	7.206106870229007	-0.7786259541984732	-0.06896551724137931	0.4662668665667166	0.047976011994003	
1.7089494823532773E12	2.891304347826087	-6.119565217391304	5.0	3942.8571428571427	128.0	128.0	4.785197947644943	6.0740835754971	10.859281523142043	483.1830350378794	592.2954144830006	-8.335877862595419	6.625954198473282	-0.33587786259541985	-0.034482758620689655	0.4587706146926537	0.04047976011994003	
1.7089494823728096E12	3.0978260869565215	-5.967391304347826	4.630434782608695	3942.8571428571427	128.0	128.0	4.7963768001051905	6.119520201625849	10.91589700173104	483.1761834831457	592.2955587262582	-2.0610687022900764	5.297709923664122	0.32061068702290074	-0.06146926536731634	0.4512743628185907	0.047976011994003	
1.7089494823923418E12	2.934782608695652	-5.858695652173913	4.956521739130435	3932.6007326007325	128.0	128.0	4.808637476997075	6.097450983220457	10.906088460217532	483.17517378034285	592.2935393206525	-5.526717557251908	7.450381679389313	-0.2595419847328244	-0.05397301349325337	0.4662668665667166	0.037481259370314844	
1.708949482411874E12	2.9456521739130435	-6.076086956521739	4.8478260869565215	3942.8571428571427	128.0	128.0	4.826018789532041	6.092546712463703	10.918565501995744	483.1726495233357	592.3230370668217	-14.045801526717558	4.549618320610687	-0.7175572519083969	-0.06146926536731634	0.46176911544227883	0.05847076461769115	
1.7089494824314062E12	2.967391304347826	-6.206521739130435	4.880434782608695	3942.8571428571427	128.0	128.0	4.873907551039165	6.073145994323015	10.94705354536218	483.1689713202681	592.3231091884505	-10.122137404580153	5.374045801526718	-0.732824427480916	-0.05547226386806597	0.4752623688155922	0.06446776611694152	
1.7089494824509385E12	3.0217391304347827	-6.141304347826087	4.913043478260869	3938.461538461538	128.0	128.0	4.914944757812591	6.090166698714101	11.005111456526691	483.1650046306854	592.3410674740157	-4.290076335877862	5.938931297709924	0.061068702290076333	-0.06896551724137931	0.46176911544227883	0.047976011994003	
1.7089494824704707E12	3.043478260869565	-6.108695652173913	4.793478260869565	3941.391941391941	128.0	128.0	4.947832220534352	6.058144695537649	11.005976916072001	483.1621918871632	592.3555639213996	-4.6106870229007635	6.061068702290076	0.24427480916030533	-0.034482758620689655	0.46176911544227883	0.050974512743628186	
1.708949482490003E12	3.0217391304347827	-6.08695652173913	4.760869565217392	3920.879120879121	128.0	128.0	4.961679573259303	6.086921225419191	11.048600798678494	483.16111006273155	592.3698440038972	-4.641221374045801	6.091603053435114	0.2900763358778626	-0.046476761619190406	0.46176911544227883	0.050974512743628186	
1.7089494825095352E12	2.9891304347826084	-6.08695652173913	4.83695652173913	3942.8571428571427	128.0	128.0	4.923382988379358	6.14656581241677	11.069948800796128	483.1577203461791	592.3527511778774	-4.778625954198473	6.091603053435114	0.04580152671755725	-0.06596701649175413	0.46926536731634183	0.05847076461769115	
1.7089494825290674E12	2.9782608695652173	-6.0978260869565215	4.826086956521739	3941.391941391941	128.0	128.0	4.852559548921532	6.175414463927087	11.027974012848619	483.15699912989135	592.3417886903035	-5.786259541984733	6.1679389312977095	-0.24427480916030533	-0.04947526236881559	0.4737631184407796	0.05847076461769115	
1.7089494825485996E12	2.9782608695652173	-6.076086956521739	4.782608695652174	3931.135531135531	128.0	128.0	4.809358693284833	6.155869502528847	10.96522819581368	483.15043606167274	592.3461881096588	-5.557251908396946	6.259541984732824	-0.42748091603053434	-0.05697151424287856	0.46176911544227883	0.043478260869565216	
1.7089494825681318E12	3.010869565217391	-6.065217391304348	4.83695652173913	3941.391941391941	128.0	128.0	4.793203448439056	6.127525702419962	10.920729150859017	483.15130152121804	592.3307540811007	-4.412213740458015	6.519083969465648	0.015267175572519083	-0.04497751124437781	0.4752623688155922	0.046476761619190406	
1.708949482587664E12	2.967391304347826	-6.08695652173913	4.760869565217392	3942.8571428571427	128.0	128.0	4.7867846234780105	6.128679648480374	10.915464271958385	483.1487772642109	592.3521020832184	-4.9465648854961835	6.244274809160305	0.061068702290076333	-0.06296851574212893	0.4707646176911544	0.041979010494752625	
1.7089494826071963E12	3.0	-6.119565217391304	4.913043478260869	3941.391941391941	128.0	128.0	4.79861257059724	6.117068066247472	10.915680636844712	483.14791180466557	592.346765082689	-3.1755725190839694	8.15267175572519	0.42748091603053434	-0.06296851574212893	0.4707646176911544	0.05247376311844078	
1.7089494826267285E12	3.0	-6.108695652173913	4.739130434782608	3942.8571428571427	128.0	128.0	4.781952474350033	6.130410567570993	10.912363041921026	483.14531542602964	592.3503711641278	-3.9847328244274807	7.007633587786259	0.41221374045801523	-0.06596701649175413	0.47976011994003	0.050974512743628186	
1.7089494826462607E12	2.9891304347826084	-6.065217391304348	4.75	3916.4835164835163	128.0	128.0	4.795078610787226	6.1594755839676365	10.954554194754863	483.14250268250737	592.3550590699982	-3.0839694656488548	7.786259541984733	0.8244274809160305	-0.06146926536731634	0.46176911544227883	0.06896551724137931	
1.708949482665793E12	2.967391304347826	-6.054347826086956	4.804347826086956	3942.8571428571427	128.0	128.0	4.793347691696607	6.141877906546344	10.935225598242951	483.1433681420527	592.3562851376873	-3.3893129770992365	7.099236641221374	0.183206106870229	-0.05697151424287856	0.4542728635682159	0.050974512743628186	
1.7089494826853252E12	2.9891304347826084	-6.054347826086956	4.826086956521739	3941.391941391941	128.0	128.0	4.7891646372276115	6.1789484237371	10.968113060964711	483.1397620606139	592.344529312197	-4.885496183206107	5.816793893129771	0.16793893129770993	-0.05547226386806597	0.46026986506746626	0.06746626686656672	
1.7089494827048574E12	3.0	-6.108695652173913	4.760869565217392	3931.135531135531	128.0	128.0	4.791328286090885	6.171519895973193	10.962848182064079	483.1403390336441	592.3492172180673	-6.3969465648854955	6.6106870229007635	-0.24427480916030533	-0.047976011994003	0.4707646176911544	0.05997001499250375	
1.7089494827243896E12	3.0217391304347827	-6.1521739130434785	4.815217391304348	3941.391941391941	128.0	128.0	4.787938569538423	6.169139882223592	10.957078451762015	483.1368050738341	592.3541214888241	-4.564885496183206	6.595419847328244	0.41221374045801523	-0.05247376311844078	0.46026986506746626	0.06746626686656672	
1.7089494827439219E12	3.032608695652174	-6.130434782608695	4.804347826086956	3941.391941391941	128.0	128.0	4.7926264754088495	6.176496288358723	10.969122763767572	483.13550688451613	592.345466893371	-3.801526717557252	7.022900763358779	0.7938931297709924	-0.06296851574212893	0.46026986506746626	0.06446776611694152	
1.708949482763454E12	3.0217391304347827	-6.119565217391304	4.815217391304348	3941.391941391941	128.0	128.0	4.790246461659248	6.149450677567802	10.93969713922705	483.1311074651608	592.3517414750745	-3.541984732824427	7.465648854961832	1.114503816793893	-0.05397301349325337	0.46176911544227883	0.05547226386806597	
1.7089494827829863E12	3.0652173913043477	-6.0978260869565215	4.782608695652174	3942.8571428571427	128.0	128.0	4.786207650447804	6.16575016567113	10.951957816118934	483.1300256407292	592.3681852064354	-3.618320610687023	6.824427480916031	1.3129770992366412	-0.07346326836581708	0.4482758620689655	0.05547226386806597	
1.7089494828025186E12	3.0	-6.076086956521739	4.793478260869565	3923.8095238095234	128.0	128.0	4.798324084082137	6.136757270903263	10.9350813549854	483.127501383722	592.3488566099235	-3.8931297709923665	6.748091603053435	0.9465648854961831	-0.05997001499250375	0.4677661169415292	0.05697151424287856	
1.7089494828220508E12	3.0	-6.108695652173913	4.771739130434782	3942.8571428571427	128.0	128.0	4.7903907049168	6.157672543248242	10.948063248165042	483.1249771267149	592.3513087453018	-4.580152671755725	6.625954198473282	0.916030534351145	-0.05697151424287856	0.46926536731634183	0.05847076461769115	
1.708949482841583E12	3.010869565217391	-6.141304347826087	4.815217391304348	3941.391941391941	128.0	128.0	4.795944070332536	6.134160892267334	10.93010496259987	483.1249771267149	592.3443129473106	-3.709923664122137	6.793893129770992	1.0229007633587786	-0.041979010494752625	0.46926536731634183	0.047976011994003	
1.7089494828611152E12	3.032608695652174	-6.108695652173913	4.75	3932.6007326007325	128.0	128.0	4.796521043362742	6.164235611466839	10.96075665482958	483.12266923459407	592.3422935417049	-3.297709923664122	6.061068702290076	0.6870229007633587	-0.04047976011994003	0.4707646176911544	0.05247376311844078	
1.7089494828806475E12	3.032608695652174	-6.0978260869565215	4.782608695652174	3942.8571428571427	128.0	128.0	4.795799827074984	6.157167691846811	10.952967518921795	483.1207219506171	592.345466893371	-2.5343511450381677	6.961832061068702	0.6412213740458015	-0.0704647676161919	0.46026986506746626	0.04947526236881559	
1.7089494829001797E12	3.0217391304347827	-6.0978260869565215	4.728260869565217	3942.8571428571427	128.0	128.0	4.792698597037625	6.1581052730208965	10.950803870058522	483.1185583017538	592.3524626913622	-2.946564885496183	6.33587786259542	0.6106870229007634	-0.05997001499250375	0.4707646176911544	0.031484257871064465	
1.708949482919712E12	3.0	-6.08695652173913	4.815217391304348	3941.391941391941	128.0	128.0	4.800992584346841	6.153777975294349	10.95477055964119	483.11733223406463	592.3394086765538	-3.1755725190839694	6.625954198473282	0.6717557251908397	-0.04947526236881559	0.4662668665667166	0.05847076461769115	
1.7089494829392441E12	3.0	-6.0978260869565215	4.75	3942.8571428571427	128.0	128.0	4.806401706505025	6.154138583438228	10.960540289943253	483.1153849500877	592.3431590012502	-2.8854961832061066	6.641221374045801	0.5343511450381679	-0.05247376311844078	0.4677661169415292	0.05997001499250375	
1.7089494829587764E12	3.0217391304347827	-6.065217391304348	4.760869565217392	3925.274725274725	128.0	128.0	4.809647179799936	6.160773773285601	10.970420953085537	483.11423100402726	592.3406347442431	-2.5038167938931295	6.671755725190839	0.7786259541984732	-0.05997001499250375	0.46026986506746626	0.05697151424287856	
1.7089494829783086E12	3.0	-6.032608695652174	4.760869565217392	3942.8571428571427	128.0	128.0	4.813902355897707	6.1471427854469765	10.961045141344684	483.11509646357257	592.3464044745451	-2.045801526717557	6.442748091603053	0.9007633587786259	-0.04497751124437781	0.4752623688155922	0.038980509745127435	
1.7089494829978408E12	3.010869565217391	-6.065217391304348	4.782608695652174	3941.391941391941	128.0	128.0	4.820104815972426	6.161350746315806	10.981455562288232	483.11350978773953	592.3484960017796	-2.3206106870229006	6.870229007633587	1.099236641221374	-0.06596701649175413	0.4737631184407796	0.05847076461769115	
1.708949483017373E12	2.9891304347826084	-6.08695652173913	4.771739130434782	3932.6007326007325	128.0	128.0	4.845203142786401	6.178804180479549	11.02400732326595	483.1117788686489	592.3422214200762	-3.0839694656488548	6.946564885496183	1.282442748091603	-0.05247376311844078	0.47826086956521735	0.05247376311844078	
1.7089494830369053E12	3.0	-6.0978260869565215	4.793478260869565	3941.391941391941	128.0	128.0	4.8770809027053	6.153201002264144	11.030281904969444	483.1114903821338	592.3438080959091	-2.610687022900763	6.870229007633587	1.3129770992366412	-0.05997001499250375	0.46476761619190404	0.05697151424287856	
1.7089494830564375E12	3.0	-6.0978260869565215	4.793478260869565	3942.8571428571427	128.0	128.0	4.874773010584475	6.145628231242686	11.02040124182716	483.1118509902777	592.3398414063265	-2.396946564885496	6.625954198473282	1.2213740458015268	-0.05997001499250375	0.4677661169415292	0.046476761619190406	
1.7089494830759697E12	3.0	-6.076086956521739	4.793478260869565	3941.391941391941	128.0	128.0	4.855877143845218	6.148224609878612	11.00410175372383	483.1104806793309	592.3600354623837	-2.8702290076335877	6.900763358778626	1.0534351145038168	-0.05547226386806597	0.4707646176911544	0.05247376311844078	
1.708949483095502E12	3.0	-6.076086956521739	4.793478260869565	3942.8571428571427	128.0	128.0	4.812748409837295	6.122405066776881	10.935153476614175	483.1082449088389	592.3547705834831	-3.450381679389313	6.625954198473282	1.2519083969465647	-0.05247376311844078	0.46476761619190404	0.046476761619190406	
1.7089494831150342E12	2.967391304347826	-6.119565217391304	4.760869565217392	3926.7399267399264	128.0	128.0	4.811666585405658	6.1344493787824375	10.946115964188095	483.1094709765281	592.3562851376873	-3.5877862595419847	6.793893129770992	1.0076335877862594	-0.05997001499250375	0.46026986506746626	0.06446776611694152	
1.7089494831345662E12	3.0	-6.065217391304348	4.771739130434782	3942.8571428571427	128.0	128.0	4.925907245386511	6.238953618878559	11.16486086426507	483.10896612512664	592.5616875364408	-2.030534351145038	7.541984732824427	1.3587786259541985	-0.047976011994003	0.46026986506746626	0.05247376311844078	
1.7089494831540984E12	2.9891304347826084	-6.054347826086956	4.8478260869565215	3941.391941391941	128.0	128.0	5.377316519894185	6.93954312080659	12.316859640700775	483.1057927734605	592.30075148353	-2.0763358778625953	8.335877862595419	1.3435114503816794	-0.05247376311844078	0.46476761619190404	0.046476761619190406	
1.7089494831736306E12	3.0	-6.076086956521739	4.782608695652174	3932.6007326007325	128.0	128.0	4.688915573229262	5.937701575482079	10.626617148711341	483.1106249225885	592.352534812991	-4.122137404580153	7.435114503816793	1.6793893129770991	-0.0704647676161919	0.4707646176911544	0.0704647676161919	
1.7089494831931628E12	3.1630434782608696	-6.043478260869565	4.315217391304348	3942.8571428571427	128.0	128.0	4.813613869382604	5.837380389854956	10.65099425923756	483.10781217906623	592.4399462270673	-5.236641221374046	3.66412213740458	1.2213740458015268	-0.05547226386806597	0.45727136431784104	0.05247376311844078	
1.708949483212695E12	2.5543478260869565	-6.054347826086956	5.228260869565217	3942.8571428571427	128.0	128.0	4.809142328398505	6.093917023410444	10.903059351808949	483.11141826050505	592.3895332085531	-3.297709923664122	14.183206106870228	0.04580152671755725	-0.05397301349325337	0.4737631184407796	0.05547226386806597	
1.7089494832322273E12	3.0652173913043477	-6.260869565217391	4.739130434782608	3942.8571428571427	128.0	128.0	4.822484829722027	6.121178999087691	10.943663828809719	483.110769165846	592.3938605062796	-8.748091603053435	3.5725190839694654	1.4198473282442747	-0.06746626686656672	0.4677661169415292	0.04947526236881559	
1.7089494832517595E12	3.0217391304347827	-6.032608695652174	4.815217391304348	3935.531135531135	128.0	128.0	4.829192141198176	6.089156995911241	10.918349137109416	483.1086055169828	592.385350154084	0.5038167938931297	7.450381679389313	1.6030534351145038	-0.05247376311844078	0.4677661169415292	0.05997001499250375	
1.7089494832712917E12	3.0652173913043477	-6.0	4.75	3929.6703296703295	128.0	128.0	4.85241530566398	6.102715862121089	10.95513116778507	483.1081727872101	592.3810228563575	-1.9236641221374045	5.877862595419847	1.2213740458015268	-0.05247376311844078	0.45727136431784104	0.05697151424287856	
1.708949483290824E12	2.880434782608696	-6.076086956521739	4.793478260869565	3915.0183150183148	128.0	128.0	4.857680184564613	6.1022110107196585	10.959891195284271	483.10528792205906	592.3941489927947	-8.870229007633588	7.557251908396946	0.549618320610687	-0.06596701649175413	0.46176911544227883	0.06896551724137931	
1.7089494833103562E12	2.9456521739130435	-6.184782608695652	4.793478260869565	3942.8571428571427	128.0	128.0	4.904631364897653	6.104735267726812	11.009366632624465	483.105648530203	592.4066260345729	-7.49618320610687	6.3206106870229	0.12213740458015267	-0.04947526236881559	0.4662668665667166	0.06596701649175413	
1.7089494833298884E12	2.9891304347826084	-6.119565217391304	4.815217391304348	3932.6007326007325	128.0	128.0	4.940980665800651	6.0638423042109375	11.004822970011588	483.103701246226	592.4418213894155	-3.541984732824427	6.381679389312977	0.41221374045801523	-0.05547226386806597	0.46476761619190404	0.05997001499250375	
1.7089494833494207E12	3.0217391304347827	-6.141304347826087	4.75	3942.8571428571427	128.0	128.0	4.987931846133691	6.038239125995533	11.026170972129224	483.1031242731958	592.5030526522461	-3.66412213740458	7.038167938931298	0.6717557251908397	-0.05247376311844078	0.45277361319340326	0.05697151424287856	
1.708949483368953E12	3.0	-6.141304347826087	4.717391304347826	3942.8571428571427	128.0	128.0	5.010001064539083	6.051581627319053	11.061582691858137	483.10240305690803	592.5115630044417	-2.5038167938931295	7.099236641221374	0.6717557251908397	-0.05397301349325337	0.4542728635682159	0.05547226386806597	
1.708949483388485E12	2.9456521739130435	-6.065217391304348	4.728260869565217	3941.391941391941	128.0	128.0	4.972497817575672	6.1138947145813365	11.086392532157008	483.10204244876417	592.4839404206206	-0.5038167938931297	6.748091603053435	0.7938931297709924	-0.05547226386806597	0.46476761619190404	0.05997001499250375	
1.7089494834080173E12	2.967391304347826	-6.054347826086956	4.760869565217392	3934.065934065934	128.0	128.0	4.909679878911958	6.186665438016109	11.096345316928067	483.1022588136505	592.4377825782041	-1.7557251908396947	6.488549618320611	0.9465648854961831	-0.041979010494752625	0.4542728635682159	0.05847076461769115	
1.7089494834275496E12	3.0	-6.076086956521739	4.739130434782608	3916.4835164835163	128.0	128.0	4.8735469428952864	6.189189695023263	11.06273663791855	483.09973455664334	592.4278297934329	-3.5572519083969465	5.938931297709924	0.9007633587786259	-0.05997001499250375	0.4677661169415292	0.046476761619190406	
1.7089494834470818E12	3.0	-6.0978260869565215	4.793478260869565	3942.8571428571427	128.0	128.0	4.856958968276855	6.1402191090845	10.997178077361355	483.09822000243906	592.4056884533989	-3.0534351145038165	6.305343511450381	0.6412213740458015	-0.06596701649175413	0.46176911544227883	0.06146926536731634	
1.708949483466614E12	2.9891304347826084	-6.065217391304348	4.815217391304348	3942.8571428571427	128.0	128.0	4.841885547862715	6.146710055674321	10.988595603537036	483.10074425944623	592.404967237111	-3.282442748091603	6.030534351145038	0.916030534351145	-0.05397301349325337	0.4662668665667166	0.05547226386806597	
1.7089494834861462E12	2.967391304347826	-6.0978260869565215	4.760869565217392	3931.135531135531	128.0	128.0	4.841092209946181	6.14295973097798	10.98405194092416	483.09973455664334	592.4293443476373	-3.0839694656488548	8.381679389312977	1.0381679389312977	-0.06296851574212893	0.4677661169415292	0.04947526236881559	
1.7089494835056785E12	3.0652173913043477	-6.0978260869565215	4.684782608695652	3941.391941391941	128.0	128.0	4.840154628772096	6.142671244462877	10.982825873234972	483.10031152967355	592.4196079277525	-1.9541984732824427	5.877862595419847	0.9465648854961831	-0.05247376311844078	0.4752623688155922	0.05997001499250375	
1.7089494835252107E12	2.967391304347826	-6.054347826086956	4.8478260869565215	3942.8571428571427	128.0	128.0	4.854578954527254	6.159331340710086	11.01391029523734	483.0986527322117	592.4183097384346	-1.7251908396946565	6.8396946564885495	0.8702290076335878	-0.06596701649175413	0.4587706146926537	0.043478260869565216	
1.708949483544743E12	2.9891304347826084	-6.0978260869565215	4.760869565217392	3941.391941391941	128.0	128.0	4.854723197784805	6.186953924531213	11.041677122316019	483.0987248538405	592.4012169124147	-4.213740458015267	6.259541984732824	0.732824427480916	-0.05547226386806597	0.4497751124437781	0.05697151424287856	
1.7089494835642751E12	2.9891304347826084	-6.08695652173913	4.782608695652174	3942.8571428571427	128.0	128.0	4.859050495511353	6.165678044042355	11.024728539553708	483.0986527322117	592.4013611556722	-4.106870229007633	6.6106870229007635	0.5343511450381679	-0.06146926536731634	0.46926536731634183	0.047976011994003	
1.7089494835838074E12	3.0	-6.08695652173913	4.782608695652174	3916.4835164835163	128.0	128.0	4.863161428351573	6.187386654303868	11.05054808265544	483.0967054482348	592.4002793312407	-3.450381679389313	5.938931297709924	0.7938931297709924	-0.0704647676161919	0.45727136431784104	0.05997001499250375	
1.7089494836033396E12	3.010869565217391	-6.108695652173913	4.804347826086956	3916.4835164835163	128.0	128.0	4.872537240092425	6.158682246051104	11.031219486143529	483.09620059683334	592.4090060483225	-3.9541984732824424	6.427480916030534	0.8396946564885496	-0.05997001499250375	0.4707646176911544	0.04947526236881559	
1.7089494836228718E12	3.0217391304347827	-6.141304347826087	4.782608695652174	3942.8571428571427	128.0	128.0	4.860925657859523	6.1824102619183385	11.043335919777862	483.09706605637865	592.400135087983	-3.7557251908396947	6.854961832061068	0.7938931297709924	-0.06146926536731634	0.46176911544227883	0.05547226386806597	
1.708949483642404E12	2.9891304347826084	-6.0978260869565215	4.793478260869565	3932.6007326007325	128.0	128.0	4.871311172403237	6.153922218551902	11.025233390955139	483.09605635357576	592.3983320472637	-2.2748091603053435	7.419847328244274	1.0229007633587786	-0.06746626686656672	0.45727136431784104	0.04947526236881559	
1.7089494836619363E12	2.9456521739130435	-6.0978260869565215	4.760869565217392	3942.8571428571427	128.0	128.0	4.851982575891325	6.153633732036797	11.005616307928122	483.0954072589168	592.4048229938535	-2.1068702290076335	7.877862595419847	0.8702290076335878	-0.046476761619190406	0.47976011994003	0.047976011994003	
1.7089494836814685E12	2.9891304347826084	-6.065217391304348	4.782608695652174	3942.8571428571427	128.0	128.0	4.855372292443787	6.147719758477182	11.00309205092097	483.09576786706066	592.4059769399139	-2.595419847328244	7.0534351145038165	0.8091603053435115	-0.05397301349325337	0.46926536731634183	0.05547226386806597	
1.7089494837010007E12	2.9891304347826084	-6.076086956521739	4.75	3941.391941391941	128.0	128.0	4.853497130095617	6.162576814004996	11.016073944100613	483.0939648263413	592.3968896146881	-3.5267175572519083	6.916030534351145	0.6259541984732824	-0.041979010494752625	0.4542728635682159	0.05547226386806597	
1.708949483720533E12	2.9891304347826084	-6.08695652173913	4.804347826086956	3938.461538461538	128.0	128.0	4.8587620089962495	6.155725259271296	11.014487268267546	483.0964169617197	592.3894610869243	-3.5114503816793894	7.236641221374046	0.6564885496183206	-0.08245877061469264	0.46026986506746626	0.05247376311844078	
1.7089494837400652E12	2.9891304347826084	-6.108695652173913	4.782608695652174	3934.065934065934	128.0	128.0	4.857319576420734	6.151253718287197	11.008573294707931	483.0947581642578	592.3954471821127	-3.679389312977099	6.8396946564885495	0.7786259541984732	-0.0704647676161919	0.45727136431784104	0.04947526236881559	
1.7089494837595974E12	3.0	-6.08695652173913	4.793478260869565	3942.8571428571427	128.0	128.0	4.851261359603567	6.138055460221226	10.989316819824793	483.09504665077293	592.3931392899918	-2.687022900763359	7.374045801526718	0.732824427480916	-0.05547226386806597	0.4752623688155922	0.05697151424287856	
1.7089494837791296E12	2.9782608695652173	-6.076086956521739	4.75	3942.8571428571427	128.0	128.0	4.851117116346016	6.149739164082904	11.00085628042892	483.095984231947	592.3818883159028	-2.091603053435114	7.267175572519084	0.47328244274809156	-0.05697151424287856	0.4512743628185907	0.06596701649175413	
1.7089494837986619E12	3.0	-6.032608695652174	4.728260869565217	3932.6007326007325	128.0	128.0	4.85378561661072	6.169139882223593	11.022925498834313	483.0925945153945	592.3860713703718	-2.6717557251908395	7.083969465648854	0.6412213740458015	-0.07346326836581708	0.4737631184407796	0.05847076461769115	
1.708949483818194E12	2.9782608695652173	-6.08695652173913	4.793478260869565	3942.8571428571427	128.0	128.0	4.852126819148877	6.15305675900659	11.005183578155467	483.09519089403045	592.399197506809	-3.480916030534351	7.343511450381679	0.8244274809160305	-0.05997001499250375	0.46476761619190404	0.046476761619190406	
1.7089494838377263E12	2.9782608695652173	-6.119565217391304	4.815217391304348	3942.8571428571427	128.0	128.0	4.857608062935837	6.145916717757787	11.003524780693624	483.09432543448514	592.387297438061	-3.8625954198473282	6.870229007633587	0.8702290076335878	-0.05697151424287856	0.46176911544227883	0.07346326836581708	
1.7089494838572585E12	3.010869565217391	-6.141304347826087	4.771739130434782	3941.391941391941	128.0	128.0	4.862295968806263	6.139570014425518	11.00186598323178	483.09309936679597	592.3958799118853	-3.1908396946564883	6.473282442748092	0.9770992366412213	-0.06146926536731634	0.4737631184407796	0.047976011994003	
1.7089494838767908E12	3.010869565217391	-6.108695652173913	4.75	3942.8571428571427	128.0	128.0	4.850756508202137	6.150099772226783	11.00085628042892	483.09324361005355	592.3923459520753	-2.3053435114503817	6.549618320610687	0.9770992366412213	-0.04497751124437781	0.46476761619190404	0.04947526236881559	
1.708949483896323E12	3.0	-6.08695652173913	4.804347826086956	3915.0183150183148	128.0	128.0	4.869147523539963	6.170438071541557	11.03958559508152	483.0921617856219	592.3871531948034	-2.030534351145038	6.641221374045801	1.114503816793893	-0.04947526236881559	0.4767616191904048	0.050974512743628186	
1.7089494839158552E12	3.010869565217391	-6.141304347826087	4.826086956521739	3941.391941391941	128.0	128.0	4.902034986261724	6.154499191582107	11.056534177843831	483.09547938054556	592.4038854126794	-2.6259541984732824	6.488549618320611	0.7786259541984732	-0.06296851574212893	0.46476761619190404	0.05247376311844078	
1.7089494839353875E12	3.0	-6.119565217391304	4.83695652173913	3941.391941391941	128.0	128.0	4.921075096258533	6.160557408399273	11.081632504657806	483.09324361005355	592.381816194274	-2.854961832061069	6.564885496183206	1.0687022900763359	-0.04947526236881559	0.4767616191904048	0.05847076461769115	
1.7089494839549197E12	2.9891304347826084	-6.119565217391304	4.804347826086956	3931.135531135531	128.0	128.0	4.925690880500183	6.1498834073404565	11.07557428784064	483.09490240751535	592.3787149642367	-2.732824427480916	6.152671755725191	0.7786259541984732	-0.05697151424287856	0.46176911544227883	0.05547226386806597	
1.708949483974452E12	3.0	-6.108695652173913	4.793478260869565	3942.8571428571427	128.0	128.0	4.905208337927859	6.157384056733139	11.062592394660998	483.09692181312107	592.3888119922652	-2.2748091603053435	5.908396946564885	0.7938931297709924	-0.05697151424287856	0.4662668665667166	0.06596701649175413	
1.7089494839939841E12	3.0	-6.065217391304348	4.782608695652174	3942.8571428571427	128.0	128.0	4.868426307252205	6.148224609878614	11.01665091713082	483.09562362380314	592.39501445234	-2.213740458015267	6.213740458015267	0.3511450381679389	-0.05397301349325337	0.4542728635682159	0.06596701649175413	
1.7089494840135164E12	3.0	-6.043478260869565	4.793478260869565	3941.391941391941	128.0	128.0	4.859338982026456	6.142382757947773	11.00172173997423	483.0962727184621	592.3934277765069	-1.9389312977099236	5.984732824427481	0.47328244274809156	-0.04947526236881559	0.46176911544227883	0.06896551724137931	
1.7089494840330486E12	2.9891304347826084	-6.054347826086956	4.782608695652174	3942.8571428571427	128.0	128.0	4.970694776856277	6.268739851562959	11.239434628419236	483.09519089403045	592.5988301752603	-1.9083969465648853	6.580152671755725	0.8396946564885496	-0.05697151424287856	0.4767616191904048	0.050974512743628186	
1.7089494840525808E12	3.0217391304347827	-6.054347826086956	4.83695652173913	3916.4835164835163	128.0	128.0	5.453332716623869	6.821263649614293	12.274596366238162	483.09338785331107	592.3632809356786	-1.6946564885496183	6.916030534351145	0.8091603053435115	-0.05697151424287856	0.4737631184407796	0.050974512743628186	
1.708949484072113E12	2.9891304347826084	-6.08695652173913	4.880434782608695	3942.8571428571427	128.0	128.0	4.722956982011436	5.985229728845326	10.708186710856761	483.0993739484995	592.3909756411285	-2.2748091603053435	6.65648854961832	0.549618320610687	-0.06296851574212893	0.4707646176911544	0.05997001499250375	
1.7089494840916453E12	3.1956521739130435	-6.0978260869565215	4.391304347826087	3942.8571428571427	128.0	128.0	4.855516535701339	5.8492083369741845	10.704724872675524	483.0975709077801	592.4674966892596	-3.4198473282442747	5.190839694656488	0.7480916030534351	-0.06296851574212893	0.4752623688155922	0.05247376311844078	
1.7089494841111775E12	2.608695652173913	-5.978260869565217	5.010869565217392	3925.274725274725	128.0	128.0	4.868931158653636	6.111514700831735	10.980445859485371	483.099518191757	592.3887398706365	-0.6564885496183206	9.114503816793892	-0.1984732824427481	-0.06746626686656672	0.4497751124437781	0.06746626686656672	
1.7089494841307097E12	3.141304347826087	-6.130434782608695	4.804347826086956	3941.391941391941	128.0	128.0	4.861574752518505	6.147142785446977	11.008717537965483	483.0992297052419	592.3712864364727	-4.961832061068702	1.7099236641221374	1.3587786259541985	-0.046476761619190406	0.4542728635682159	0.047976011994003	
1.708949484150242E12	3.0	-5.945652173913043	4.83695652173913	3944.322344322344	128.0	128.0	4.8759269566448875	6.161567111202135	11.037494067847023	483.0993739484995	592.3506596506429	-0.3511450381679389	9.190839694656487	1.465648854961832	-0.06146926536731634	0.46926536731634183	0.06146926536731634	
1.7089494841697742E12	3.0652173913043477	-5.956521739130435	4.75	3942.8571428571427	128.0	128.0	4.906290162359496	6.150604623628214	11.05689478598771	483.09648908334844	592.3579439351493	-1.7862595419847327	5.847328244274809	2.3664122137404577	-0.05997001499250375	0.4707646176911544	0.04947526236881559	
1.7089494841893064E12	2.967391304347826	-6.032608695652174	4.83695652173913	3942.8571428571427	128.0	128.0	4.910689581714819	6.13697363578959	11.04766321750441	483.0982921240678	592.3610451651866	-6.8396946564885495	7.694656488549618	1.0076335877862594	-0.06296851574212893	0.46476761619190404	0.04947526236881559	
1.7089494842088386E12	3.010869565217391	-6.206521739130435	4.913043478260869	3935.531135531135	128.0	128.0	4.961102600229097	6.135963932986728	11.097066533215825	483.0990133403556	592.3792198156381	-7.068702290076335	6.3206106870229	0.3511450381679389	-0.06296851574212893	0.4677661169415292	0.05697151424287856	
1.7089494842283708E12	3.032608695652174	-6.217391304347826	4.880434782608695	3913.5531135531132	128.0	128.0	4.994999765753718	6.117861404164005	11.112861169917723	483.09620059683334	592.3880907759775	-3.114503816793893	5.984732824427481	-0.061068702290076333	-0.05697151424287856	0.4587706146926537	0.05547226386806597	
1.708949484247903E12	3.010869565217391	-6.195652173913043	4.771739130434782	3941.391941391941	128.0	128.0	5.0466388519571845	6.105384362385794	11.152023214342979	483.0990854619844	592.427180698774	-1.5725190839694656	6.5038167938931295	-0.0916030534351145	-0.05547226386806597	0.4752623688155922	0.046476761619190406	
1.7089494842674353E12	2.9891304347826084	-6.119565217391304	4.739130434782608	3929.6703296703295	128.0	128.0	5.060558326310912	6.104302537954157	11.16486086426507	483.0987248538405	592.4399462270673	0.04580152671755725	6.473282442748092	0.6106870229007634	-0.05397301349325337	0.44377811094452774	0.06146926536731634	
1.7089494842869675E12	2.967391304347826	-6.076086956521739	4.793478260869565	3942.8571428571427	128.0	128.0	5.023199322605053	6.207869196876191	11.231068519481244	483.0986527322117	592.4131891027915	0.549618320610687	6.152671755725191	1.1755725190839694	-0.06146926536731634	0.4737631184407796	0.06596701649175413	
1.7089494843064998E12	2.9782608695652173	-6.054347826086956	4.83695652173913	3942.8571428571427	128.0	128.0	4.965069289811765	6.224312928237072	11.189382218048838	483.1018260838778	592.3885956273789	-1.3129770992366412	5.786259541984733	0.7938931297709924	-0.04947526236881559	0.46926536731634183	0.03298350824587706	
1.708949484326032E12	3.010869565217391	-6.043478260869565	4.83695652173913	3941.391941391941	128.0	128.0	4.927421799590802	6.2365736051289575	11.16399540471976	483.0998066782721	592.3709979499577	-1.7404580152671756	6.091603053435114	1.0687022900763359	-0.05247376311844078	0.46026986506746626	0.05997001499250375	
1.7089494843455642E12	3.010869565217391	-6.021739130434782	4.858695652173913	3942.8571428571427	128.0	128.0	4.881480322060623	6.2280632529334135	11.109543574994037	483.0995903133858	592.3582324216643	-1.3587786259541985	6.641221374045801	0.8702290076335878	-0.047976011994003	0.46476761619190404	0.046476761619190406	
1.7089494843650964E12	2.9782608695652173	-6.065217391304348	4.8478260869565215	3915.0183150183148	128.0	128.0	4.884870038613086	6.173611423207691	11.058481461820778	483.09915758361313	592.3611172868153	-2.1221374045801524	6.6106870229007635	1.099236641221374	-0.06296851574212893	0.4677661169415292	0.04947526236881559	
1.7089494843846287E12	2.9130434782608696	-6.076086956521739	4.956521739130435	3915.0183150183148	128.0	128.0	4.878883943424695	6.183996937751406	11.0628808811761	483.1029079083095	592.375397369313	-0.030534351145038167	8.198473282442748	1.3587786259541985	-0.047976011994003	0.46026986506746626	0.05997001499250375	
1.708949484404161E12	3.043478260869565	-6.010869565217392	4.706521739130435	3941.391941391941	128.0	128.0	4.882129416719606	6.188396357106728	11.070525773826335	483.10298002993824	592.3694833957534	0.6106870229007634	5.587786259541985	1.66412213740458	-0.05547226386806597	0.4677661169415292	0.04947526236881559	
1.708949484423693E12	2.9239130434782608	-5.956521739130435	4.9021739130434785	3928.205128205128	128.0	128.0	4.888331876794324	6.195103668582877	11.0834355453772	483.10413397599865	592.3720797743892	0.6717557251908397	7.221374045801526	1.9389312977099236	-0.0704647676161919	0.46476761619190404	0.05997001499250375	
1.7089494844432253E12	2.967391304347826	-5.989130434782608	4.815217391304348	3942.8571428571427	128.0	128.0	4.899077999481917	6.220490481911955	11.119568481393872	483.10355700296844	592.3494335829537	-2.3053435114503817	7.3893129770992365	1.7251908396946565	-0.05997001499250375	0.4677661169415292	0.05697151424287856	
1.7089494844627576E12	3.0	-5.967391304347826	4.83695652173913	3941.391941391941	128.0	128.0	4.920209636713223	6.2030370477482135	11.123246684461437	483.1047830706577	592.3464044745451	-2.183206106870229	6.6106870229007635	1.5877862595419847	-0.06746626686656672	0.4677661169415292	0.05247376311844078	
1.7089494844822898E12	2.9891304347826084	-6.021739130434782	4.83695652173913	3941.391941391941	128.0	128.0	4.919488420425465	6.19863762839289	11.118126048818356	483.1052158004303	592.3492893396962	-2.564885496183206	6.870229007633587	1.9541984732824427	-0.05397301349325337	0.46926536731634183	0.06596701649175413	
1.708949484501822E12	3.0	-6.043478260869565	4.858695652173913	3942.8571428571427	128.0	128.0	4.898356783194159	6.205200696611487	11.103557479805646	483.10802854395257	592.3547705834831	-3.633587786259542	7.236641221374046	1.9236641221374045	-0.05547226386806597	0.46026986506746626	0.05697151424287856	
1.7089494845213542E12	2.967391304347826	-6.141304347826087	4.891304347826087	3916.4835164835163	128.0	128.0	4.909535635654406	6.21097042691355	11.120506062567957	483.1082449088389	592.3510202587868	-3.2519083969465647	8.122137404580153	2.3053435114503817	-0.06746626686656672	0.45277361319340326	0.04947526236881559	
1.7089494845408865E12	2.9891304347826084	-6.163043478260869	4.956521739130435	3941.391941391941	128.0	128.0	4.901458013231518	6.196473979529617	11.097931992761135	483.1084612737252	592.3429426363639	-2.198473282442748	7.190839694656488	2.717557251908397	-0.041979010494752625	0.46926536731634183	0.05847076461769115	
1.7089494845604187E12	3.0	-6.163043478260869	4.956521739130435	3942.8571428571427	128.0	128.0	4.904775608155204	6.187242411046316	11.09201801920152	483.1084612737252	592.3446735554545	-1.9389312977099236	6.702290076335878	2.5343511450381677	-0.06596701649175413	0.46926536731634183	0.047976011994003	
1.708949484579951E12	3.0217391304347827	-6.130434782608695	4.869565217391305	3928.205128205128	128.0	128.0	4.904991973041532	6.1639471249517355	11.068939097993267	483.109182490013	592.3337110678806	-2.229007633587786	6.3206106870229	1.8778625954198473	-0.046476761619190406	0.46176911544227883	0.06146926536731634	
1.7089494845994832E12	2.9456521739130435	-6.08695652173913	4.934782608695652	3942.8571428571427	128.0	128.0	4.882994876264916	6.202892804490662	11.085887680755578	483.11055280095974	592.3281577024649	-1.099236641221374	7.297709923664121	2.259541984732824	-0.05397301349325337	0.4662668665667166	0.050974512743628186	
1.7089494846190154E12	3.0	-6.076086956521739	4.8478260869565215	3942.8571428571427	128.0	128.0	4.892154323119441	6.167913814534404	11.060068137653845	483.11127401724747	592.3423656633337	-2.396946564885496	7.343511450381679	1.816793893129771	-0.05397301349325337	0.4542728635682159	0.043478260869565216	
1.7089494846385476E12	2.9782608695652173	-6.065217391304348	4.9021739130434785	3941.391941391941	128.0	128.0	4.893091904293526	6.179886004911185	11.072977909204711	483.11343766611077	592.3340716760245	-2.213740458015267	7.465648854961832	2.091603053435114	-0.06896551724137931	0.4662668665667166	0.05847076461769115	
1.7089494846580798E12	2.9456521739130435	-6.021739130434782	4.891304347826087	3941.391941391941	128.0	128.0	4.889557944483513	6.164740462868269	11.054298407351782	483.11221159842154	592.3402741360992	-0.6564885496183206	7.587786259541985	1.816793893129771	-0.06896551724137931	0.4662668665667166	0.05547226386806597	
1.708949484677612E12	2.9565217391304346	-6.010869565217392	4.869565217391305	3936.9963369963366	128.0	128.0	4.883139119522467	6.195247911840428	11.078387031362896	483.11199523353525	592.3268595131468	-1.2366412213740459	7.206106870229007	1.5114503816793892	-0.07796101949025487	0.46476761619190404	0.04947526236881559	
1.7089494846971443E12	2.902173913043478	-6.043478260869565	4.913043478260869	3941.391941391941	128.0	128.0	4.88977430936984	6.1653174358984755	11.055091745268316	483.11343766611077	592.330681959472	-1.9541984732824427	7.877862595419847	1.282442748091603	-0.06146926536731634	0.4512743628185907	0.06146926536731634	
1.7089494847166765E12	2.9239130434782608	-6.08695652173913	4.913043478260869	3941.391941391941	128.0	128.0	4.8910003770590285	6.169284125481144	11.060284502540172	483.1154570717165	592.3213061477311	-2.3664122137404577	7.343511450381679	1.2366412213740459	-0.04947526236881559	0.4512743628185907	0.05547226386806597	
1.7089494847362087E12	2.902173913043478	-6.08695652173913	4.945652173913043	3926.7399267399264	128.0	128.0	4.892298566376993	6.183636329607526	11.075934895984519	483.1165388961481	592.3273643645483	-1.8015267175572518	7.312977099236641	1.4961832061068703	-0.04947526236881559	0.4662668665667166	0.037481259370314844	
1.708949484755741E12	2.967391304347826	-6.065217391304348	4.891304347826087	3941.391941391941	128.0	128.0	4.887250052362687	6.198421263506563	11.08567131586925	483.1178370854661	592.3148152011413	-2.2748091603053435	7.099236641221374	1.3435114503816794	-0.046476761619190406	0.4662668665667166	0.050974512743628186	
1.7089494847752732E12	2.9565217391304346	-6.054347826086956	4.858695652173913	3942.8571428571427	128.0	128.0	4.893524634066181	6.174693247639328	11.06821788170551	483.11819769360994	592.3205849314434	-1.4045801526717556	7.450381679389313	1.6793893129770991	-0.046476761619190406	0.46176911544227883	0.05547226386806597	
1.7089494847948054E12	2.9239130434782608	-6.054347826086956	4.880434782608695	3941.391941391941	128.0	128.0	4.9215078260311875	6.224168684979522	11.14567651101071	483.11964012618546	592.3213782693599	-0.6717557251908397	6.244274809160305	1.618320610687023	-0.06296851574212893	0.4677661169415292	0.046476761619190406	
1.7089494848143376E12	2.967391304347826	-6.065217391304348	4.9021739130434785	3941.391941391941	128.0	128.0	4.95728015390398	6.157384056733138	11.114664210637118	483.12259711296525	592.3260661752304	-0.6412213740458015	6.381679389312977	1.6335877862595418	-0.05397301349325337	0.4767616191904048	0.043478260869565216	
1.7089494848338699E12	2.9239130434782608	-6.043478260869565	4.978260869565217	3917.948717948718	128.0	128.0	4.95677530250255	6.196546101158393	11.153321403660943	483.12302984273794	592.3001023888711	-0.030534351145038167	6.198473282442748	1.5572519083969465	-0.06296851574212893	0.4677661169415292	0.06446776611694152	
1.708949484853402E12	2.9239130434782608	-6.065217391304348	5.0	3915.0183150183148	128.0	128.0	4.958217735078065	6.1728902069199325	11.131107941997998	483.12375105902566	592.2989484428107	-0.47328244274809156	6.7328244274809155	1.4809160305343512	-0.04947526236881559	0.46176911544227883	0.050974512743628186	
1.7089494848729343E12	2.891304347826087	-6.043478260869565	4.956521739130435	3941.391941391941	128.0	128.0	4.9019628646329485	6.2071479805884335	11.109110845221382	483.1222365048214	592.3031314972797	-1.2366412213740459	6.045801526717557	1.7099236641221374	-0.046476761619190406	0.4587706146926537	0.04047976011994003	
1.7089494848924666E12	2.9130434782608696	-6.032608695652174	4.891304347826087	3925.274725274725	128.0	128.0	4.896265255959661	6.1718083824882966	11.068073638447958	483.12447227531345	592.3095503222406	-0.24427480916030533	6.534351145038167	1.465648854961832	-0.05697151424287856	0.46926536731634183	0.05547226386806597	
1.7089494849119988E12	2.902173913043478	-6.010869565217392	5.076086956521739	3942.8571428571427	128.0	128.0	4.8882597551655484	6.19041576271245	11.078675517877999	483.12375105902566	592.3809507347287	0.8244274809160305	6.229007633587786	1.3587786259541985	-0.047976011994003	0.4677661169415292	0.031484257871064465	
1.708949484931531E12	2.9130434782608696	-6.021739130434782	5.043478260869565	3942.8571428571427	128.0	128.0	5.386908696521366	6.929518214406754	12.31642691092812	483.1216595317912	592.3241188912534	-0.07633587786259542	6.961832061068702	1.450381679389313	-0.05397301349325337	0.4767616191904048	0.043478260869565216	
1.7089494849510632E12	2.934782608695652	-6.054347826086956	5.0	3942.8571428571427	128.0	128.0	4.9074441084199085	6.478325304785408	11.385769413205317	483.1273571404645	592.1681919298401	-1.3893129770992365	6.305343511450381	1.618320610687023	-0.05397301349325337	0.4587706146926537	0.047976011994003	
1.7089494849705955E12	2.858695652173913	-6.0	4.83695652173913	3942.8571428571427	128.0	128.0	4.885447011643293	5.80781052205688	10.693257533700173	483.12627531603283	592.4715355004711	0.549618320610687	6.687022900763359	1.3129770992366412	-0.047976011994003	0.46026986506746626	0.05997001499250375	
1.7089494849901277E12	3.0	-5.891304347826087	4.858695652173913	3916.4835164835163	128.0	128.0	4.908165324707666	6.029512408913662	10.937677733621328	483.12591470788897	592.382465288933	-0.38167938931297707	1.7862595419847327	1.66412213740458	-0.06146926536731634	0.4542728635682159	0.05847076461769115	
1.70894948500966E12	2.760869565217391	-5.967391304347826	5.467391304347826	3942.8571428571427	128.0	128.0	4.935355178756139	6.1344493787824375	11.069804557538577	483.12771774860835	592.327797094321	1.7404580152671756	9.740458015267174	0.9312977099236641	-0.047976011994003	0.48575712143928035	0.05247376311844078	
1.7089494850291921E12	2.9456521739130435	-6.054347826086956	4.728260869565217	3941.391941391941	128.0	128.0	4.931244245915919	6.178299329078118	11.109543574994037	483.1264916809192	592.3061606056882	-6.7328244274809155	6.3206106870229	1.8931297709923662	-0.041979010494752625	0.46176911544227883	0.05547226386806597	
1.7089494850487244E12	2.967391304347826	-5.891304347826087	5.021739130434782	3925.274725274725	128.0	128.0	4.95590984295724	6.168490787564609	11.12440063052185	483.127501383722	592.2892841445547	0.061068702290076333	7.251908396946565	1.4198473282442747	-0.046476761619190406	0.4767616191904048	0.043478260869565216	
1.7089494850682566E12	2.858695652173913	-5.934782608695652	5.076086956521739	3942.8571428571427	128.0	128.0	4.981368777915094	6.188107870591626	11.16947664850672	483.13074685701696	592.288851414782	0.3969465648854962	7.145038167938931	0.9770992366412213	-0.05997001499250375	0.4752623688155922	0.04947526236881559	
1.7089494850877888E12	2.902173913043478	-6.141304347826087	5.0	3941.391941391941	128.0	128.0	4.992547630375341	6.185872100099576	11.178419730474918	483.12879957304	592.2721913185349	-6.534351145038167	4.900763358778626	0.9312977099236641	-0.05547226386806597	0.4677661169415292	0.0239880059970015	
1.708949485107321E12	2.967391304347826	-6.119565217391304	5.108695652173913	3939.9267399267396	128.0	128.0	5.044980054495341	6.173106571806261	11.218086626301602	483.12959291095655	592.2970011588337	-2.198473282442748	5.0534351145038165	-0.04580152671755725	-0.05997001499250375	0.45727136431784104	0.04947526236881559	
1.7089494851268533E12	2.9565217391304346	-6.054347826086956	5.021739130434782	3941.391941391941	128.0	128.0	5.077074179300569	6.157744664877017	11.234818844177585	483.1292323028126	592.3197194718981	1.1908396946564885	6.122137404580153	1.1603053435114503	-0.06146926536731634	0.4662668665667166	0.04047976011994003	
1.7089494851463855E12	2.9130434782608696	-6.021739130434782	4.978260869565217	3916.4835164835163	128.0	128.0	5.122222318914213	6.164379854724391	11.286602173638604	483.1295207893277	592.3634251789362	-0.10687022900763359	6.152671755725191	1.450381679389313	-0.05397301349325337	0.46926536731634183	0.06146926536731634	
1.7089494851659177E12	2.880434782608696	-5.989130434782608	5.0978260869565215	3942.8571428571427	128.0	128.0	5.125756278724227	6.231525091114651	11.357281369838878	483.12858320815366	592.3424377849624	-0.22900763358778625	6.748091603053435	1.0534351145038168	-0.05697151424287856	0.46176911544227883	0.043478260869565216	
1.70894948518545E12	2.9130434782608696	-5.967391304347826	5.043478260869565	3942.8571428571427	128.0	128.0	5.053346163433333	6.2990309356487915	11.352377099082124	483.13009776235793	592.3415002037883	-0.9923664122137404	6.33587786259542	0.8091603053435115	-0.05697151424287856	0.4542728635682159	0.050974512743628186	
1.7089494852049822E12	2.902173913043478	-5.967391304347826	5.108695652173913	3923.8095238095234	128.0	128.0	4.985912440527969	6.29838184098981	11.284294281517779	483.1280783567522	592.3272201212908	-0.4580152671755725	6.8396946564885495	0.3053435114503817	-0.06146926536731634	0.4767616191904048	0.04047976011994003	
1.7089494852245144E12	2.902173913043478	-5.945652173913043	5.130434782608695	3942.8571428571427	128.0	128.0	4.966223235872178	6.273139270918282	11.23936250679046	483.1276456269796	592.3111369980737	-1.282442748091603	6.8396946564885495	0.8244274809160305	-0.05247376311844078	0.45277361319340326	0.046476761619190406	
1.7089494852440466E12	2.902173913043478	-5.989130434782608	5.130434782608695	3942.8571428571427	128.0	128.0	4.968531127993003	6.233111766947719	11.201642894940722	483.1277898702371	592.3254170805714	-1.7557251908396947	7.038167938931298	1.0687022900763359	-0.05547226386806597	0.4677661169415292	0.04947526236881559	
1.7089494852635786E12	2.891304347826087	-6.0	5.239130434782608	3941.391941391941	128.0	128.0	4.9619680597744065	6.2403960514540735	11.20236411122848	483.12829472163855	592.3135170118234	0.47328244274809156	8.061068702290076	1.618320610687023	-0.04947526236881559	0.4737631184407796	0.050974512743628186	
1.7089494852831108E12	2.9891304347826084	-5.956521739130435	5.032608695652174	3942.8571428571427	128.0	128.0	4.947255247504145	6.240612416340401	11.187867663844546	483.12858320815366	592.3308262027296	-0.030534351145038167	6.8396946564885495	1.2213740458015268	-0.05697151424287856	0.46926536731634183	0.04047976011994003	
1.708949485302643E12	2.8478260869565215	-5.913043478260869	5.130434782608695	3939.9267399267396	128.0	128.0	4.961679573259303	6.243208794976329	11.204888368235633	483.12887169466876	592.3269316347756	-1.5114503816793892	7.862595419847328	1.3587786259541985	-0.04947526236881559	0.46176911544227883	0.047976011994003	
1.7089494853221753E12	2.9239130434782608	-5.9021739130434785	5.010869565217392	3942.8571428571427	128.0	128.0	4.970622655227501	6.269100459706838	11.239723114934339	483.12829472163855	592.3133727685658	-2.381679389312977	6.961832061068702	0.916030534351145	-0.04947526236881559	0.4737631184407796	0.03298350824587706	
1.7089494853417075E12	2.858695652173913	-5.923913043478261	5.195652173913043	3942.8571428571427	128.0	128.0	4.98144089954387	6.237222699787939	11.218663599331808	483.1293765460702	592.3133727685658	-3.3587786259541983	6.702290076335878	0.8091603053435115	-0.05697151424287856	0.4662668665667166	0.050974512743628186	
1.7089494853612397E12	2.9239130434782608	-5.978260869565217	5.163043478260869	3923.8095238095234	128.0	128.0	4.977618453218753	6.25381067440637	11.231429127625123	483.13074685701696	592.314598836255	-3.9847328244274807	7.007633587786259	0.9007633587786259	-0.05697151424287856	0.4767616191904048	0.050974512743628186	
1.708949485380772E12	2.967391304347826	-5.978260869565217	5.1521739130434785	3944.322344322344	128.0	128.0	4.9815130211726455	6.262465269859465	11.24397829103211	483.12980927584283	592.3162576337169	-2.519083969465649	7.9541984732824424	1.4198473282442747	-0.05247376311844078	0.4497751124437781	0.04947526236881559	
1.7089494854003042E12	2.9130434782608696	-5.956521739130435	5.119565217391304	3942.8571428571427	128.0	128.0	4.986128805414296	6.26152768868538	11.247656494099676	483.13074685701696	592.3169788500046	-2.6412213740458013	7.511450381679389	1.297709923664122	-0.06146926536731634	0.46926536731634183	0.043478260869565216	
1.7089494854198364E12	2.891304347826087	-5.934782608695652	5.08695652173913	3941.391941391941	128.0	128.0	4.988653062421449	6.232029942516082	11.22068300493753	483.1317565598198	592.3173394581485	-3.297709923664122	7.541984732824427	0.9465648854961831	-0.05697151424287856	0.4542728635682159	0.04047976011994003	
1.7089494854393687E12	2.891304347826087	-5.934782608695652	5.108695652173913	3942.8571428571427	128.0	128.0	4.975238439469152	6.2249620228960545	11.200200462365206	483.13154019493345	592.3127236739068	-3.7557251908396947	6.99236641221374	0.8549618320610687	-0.06296851574212893	0.4707646176911544	0.046476761619190406	
1.708949485458901E12	2.891304347826087	-5.934782608695652	5.119565217391304	3917.948717948718	128.0	128.0	4.980286953483457	6.2489785252783925	11.22926547876185	483.13182868144855	592.3119303359903	-3.3587786259541983	7.206106870229007	0.9312977099236641	-0.05547226386806597	0.45727136431784104	0.04947526236881559	
1.708949485478433E12	2.9239130434782608	-5.956521739130435	5.108695652173913	3942.8571428571427	128.0	128.0	4.971632358030362	6.208374048277623	11.180006406307985	483.1319008030774	592.3071703084911	-4.030534351145038	6.977099236641221	0.7633587786259541	-0.06746626686656672	0.46026986506746626	0.046476761619190406	
1.7089494854979653E12	2.934782608695652	-5.956521739130435	5.0978260869565215	3941.391941391941	128.0	128.0	4.986850021702054	6.215514089526426	11.20236411122848	483.12901593792634	592.3218831207613	-3.6488549618320607	6.946564885496183	0.8549618320610687	-0.05997001499250375	0.46476761619190404	0.046476761619190406	
1.7089494855174976E12	2.880434782608696	-5.945652173913043	5.163043478260869	3923.8095238095234	128.0	128.0	4.979854223710802	6.197483682332479	11.177337906043281	483.1299535191004	592.3260661752304	-3.8931297709923665	7.190839694656488	0.7938931297709924	-0.047976011994003	0.46476761619190404	0.05247376311844078	
1.7089494855370298E12	2.869565217391304	-5.967391304347826	5.108695652173913	3942.8571428571427	128.0	128.0	4.978844520907941	6.212124372973964	11.190968893881905	483.13154019493345	592.3024824026206	-4.152671755725191	7.709923664122137	1.0229007633587786	-0.047976011994003	0.4707646176911544	0.04947526236881559	
1.708949485556562E12	2.880434782608696	-5.934782608695652	5.065217391304348	3942.8571428571427	128.0	128.0	4.981080291399991	6.211042548542327	11.192122839942318	483.1305304921306	592.3094782006119	-3.7251908396946565	7.236641221374046	1.0229007633587786	-0.046476761619190406	0.4587706146926537	0.05847076461769115	
1.7089494855760942E12	2.891304347826087	-5.934782608695652	5.08695652173913	3941.391941391941	128.0	128.0	4.978051182991408	6.220706846798283	11.19875802978969	483.1300256407292	592.3080357680363	-4.717557251908397	6.885496183206107	0.7786259541984732	-0.06296851574212893	0.46026986506746626	0.05247376311844078	
1.7089494855956265E12	2.891304347826087	-5.945652173913043	5.076086956521739	3942.8571428571427	128.0	128.0	4.982089994202852	6.205705548012919	11.18779554221577	483.12916018118386	592.305583632658	-5.450381679389313	6.809160305343511	0.42748091603053434	-0.05397301349325337	0.4662668665667166	0.04047976011994003	
1.7089494856151587E12	2.891304347826087	-5.967391304347826	5.119565217391304	3919.4139194139193	128.0	128.0	4.979133007423044	6.212989832519273	11.192122839942318	483.1263474376616	592.3016169430754	-5.068702290076335	6.916030534351145	0.24427480916030533	-0.05247376311844078	0.46476761619190404	0.04947526236881559	
1.708949485634691E12	2.858695652173913	-5.978260869565217	5.108695652173913	3942.8571428571427	128.0	128.0	4.986633656815727	6.267441662244995	11.254075319060721	483.1264916809192	592.311064876445	-5.206106870229007	6.854961832061068	0.4427480916030534	-0.05397301349325337	0.4767616191904048	0.050974512743628186	
1.7089494856542231E12	2.891304347826087	-5.978260869565217	5.0978260869565215	3942.8571428571427	128.0	128.0	5.024497511923017	6.20685949407333	11.231357005996347	483.12771774860835	592.3289510403814	-4.67175572519084	7.038167938931298	0.6870229007633587	-0.04947526236881559	0.4737631184407796	0.047976011994003	
1.7089494856737554E12	2.891304347826087	-5.956521739130435	5.0978260869565215	3922.344322344322	128.0	128.0	5.013462902720321	6.2451560789532765	11.258618981673598	483.1305304921306	592.2984435914092	-4.824427480916031	6.99236641221374	0.32061068702290074	-0.05547226386806597	0.4677661169415292	0.038980509745127435	
1.7089494856932876E12	2.880434782608696	-5.956521739130435	5.065217391304348	3942.8571428571427	128.0	128.0	5.024930241695672	6.243569403120209	11.268499644815881	483.12916018118386	592.3006072402725	-5.557251908396946	6.5038167938931295	0.6564885496183206	-0.05247376311844078	0.4677661169415292	0.046476761619190406	
1.7089494857128198E12	2.891304347826087	-5.956521739130435	5.065217391304348	3942.8571428571427	128.0	128.0	4.994494914352288	6.251863390429424	11.246358304781712	483.12916018118386	592.2947653883416	-6.030534351145038	6.152671755725191	0.2748091603053435	-0.05247376311844078	0.45727136431784104	0.046476761619190406	
1.708949485732352E12	2.858695652173913	-5.956521739130435	5.065217391304348	3941.391941391941	128.0	128.0	4.9729305473483265	6.216091062556632	11.189021609904959	483.12930442444144	592.3019054295904	-5.7251908396946565	6.229007633587786	0.32061068702290074	-0.05697151424287856	0.46176911544227883	0.05847076461769115	
1.7089494857518843E12	2.880434782608696	-5.978260869565217	5.032608695652174	3942.8571428571427	128.0	128.0	4.96362685723625	6.229505685508929	11.193132542745179	483.12872745141124	592.3135170118234	-5.206106870229007	7.236641221374046	0.4427480916030534	-0.046476761619190406	0.4587706146926537	0.05547226386806597	
1.7089494857714165E12	2.891304347826087	-5.978260869565217	5.065217391304348	3919.4139194139193	128.0	128.0	5.313128270283731	6.7868616326882405	12.099989902971972	483.12533773485876	592.4099436294965	-5.770992366412213	7.0534351145038165	0.24427480916030533	-0.046476761619190406	0.4587706146926537	0.043478260869565216	
1.7089494857909487E12	2.902173913043478	-6.021739130434782	5.108695652173913	3942.8571428571427	128.0	128.0	5.219153787988876	6.872974857446534	12.09212864543541	483.1264916809192	592.1008303285636	-7.206106870229007	6.5038167938931295	0.15267175572519084	-0.06896551724137931	0.4737631184407796	0.05847076461769115	
1.708949485810481E12	2.9782608695652173	-6.032608695652174	5.021739130434782	3942.8571428571427	128.0	128.0	4.84830437282376	5.997057675964555	10.845362048788315	483.12476076182855	592.3846289377963	-6.458015267175572	5.648854961832061	0.21374045801526717	-0.04947526236881559	0.46926536731634183	0.050974512743628186	
1.7089494858300132E12	3.0869565217391304	-5.967391304347826	4.75	3922.344322344322	128.0	128.0	4.988003967762467	6.026699665391407	11.014703633153873	483.1236789373969	592.4069866427168	-4.977099236641221	4.3206106870229	-0.21374045801526717	-0.05397301349325337	0.46926536731634183	0.043478260869565216	
1.7089494858495454E12	2.7717391304347827	-5.967391304347826	5.315217391304348	3944.322344322344	128.0	128.0	4.979493615566923	6.184429667524061	11.163923283090984	483.1235346941394	592.3376777574632	-10.51908396946565	5.862595419847328	-0.42748091603053434	-0.046476761619190406	0.46176911544227883	0.043478260869565216	
1.7089494858690776E12	2.880434782608696	-6.130434782608695	5.08695652173913	3942.8571428571427	128.0	128.0	5.008125902190913	6.207436467103537	11.21556236929445	483.1192795180416	592.3060884840594	-7.2824427480916025	8.045801526717558	0.21374045801526717	-0.04947526236881559	0.4737631184407796	0.047976011994003	
1.7089494858886099E12	3.0978260869565215	-5.956521739130435	4.717391304347826	3941.391941391941	128.0	128.0	5.008125902190913	6.215297724640098	11.22342362683101	483.1174043556934	592.2975060102351	-0.6259541984732824	5.587786259541985	0.2900763358778626	-0.05697151424287856	0.4767616191904048	0.050974512743628186	
1.708949485908142E12	2.880434782608696	-5.913043478260869	5.065217391304348	3942.8571428571427	128.0	128.0	5.030483607111408	6.238809375621007	11.269292982732415	483.11098553073236	592.3016890647041	-8.366412213740457	6.641221374045801	-0.41221374045801523	-0.06296851574212893	0.4677661169415292	0.046476761619190406	
1.7089494859276743E12	2.902173913043478	-6.119565217391304	4.967391304347826	3917.948717948718	128.0	128.0	5.045124297752893	6.22539475266871	11.270519050421603	483.1096152197856	592.3064490922034	-12.580152671755725	5.145038167938931	-0.32061068702290074	-0.05397301349325337	0.4587706146926537	0.047976011994003	
1.7089494859472065E12	2.967391304347826	-6.206521739130435	5.010869565217392	3942.8571428571427	128.0	128.0	5.082122693314874	6.230226901796687	11.312349595111561	483.1086055169828	592.3241910128821	-4.519083969465648	5.923664122137405	-0.366412213740458	-0.04497751124437781	0.4707646176911544	0.04947526236881559	
1.7089494859667388E12	2.9782608695652173	-6.08695652173913	5.010869565217392	3941.391941391941	128.0	128.0	5.119265332134406	6.217894103276027	11.337159435410433	483.1075236925511	592.3469093259465	-2.0	5.877862595419847	0.12213740458015267	-0.047976011994003	0.45277361319340326	0.04947526236881559	
1.708949485986271E12	2.9891304347826084	-6.076086956521739	4.869565217391305	3920.879120879121	128.0	128.0	5.1649183231494815	6.211403156686205	11.376321479835687	483.1062255032332	592.3548427051119	-3.5725190839694654	6.5038167938931295	0.9923664122137404	-0.06146926536731634	0.4512743628185907	0.05547226386806597	
1.7089494860058032E12	2.967391304347826	-6.032608695652174	4.858695652173913	3942.8571428571427	128.0	128.0	5.169534107391132	6.23772755118937	11.407261658580502	483.10442246251375	592.3684015713217	-3.3587786259541983	6.015267175572519	0.7633587786259541	-0.06146926536731634	0.4737631184407796	0.06596701649175413	
1.7089494860253354E12	2.934782608695652	-5.989130434782608	4.934782608695652	3941.391941391941	128.0	128.0	5.1279199275875005	6.296795165156743	11.424715092744243	483.10269154342313	592.3548427051119	-4.091603053435114	5.633587786259541	0.2748091603053435	-0.05697151424287856	0.46926536731634183	0.043478260869565216	
1.7089494860448677E12	2.9456521739130435	-6.010869565217392	4.923913043478261	3942.8571428571427	128.0	128.0	5.05853892070519	6.339707534278339	11.398246454983529	483.1009606243325	592.3189982556103	-5.908396946564885	6.3206106870229	0.015267175572519083	-0.047976011994003	0.45727136431784104	0.05697151424287856	
1.7089494860644E12	2.967391304347826	-6.054347826086956	4.913043478260869	3941.391941391941	128.0	128.0	5.008847118478671	6.314897693979465	11.323744812458136	483.10060001618865	592.3160412688305	-5.145038167938931	6.458015267175572	0.07633587786259542	-0.05997001499250375	0.4752623688155922	0.041979010494752625	
1.7089494860839321E12	2.967391304347826	-6.076086956521739	4.989130434782608	3916.4835164835163	128.0	128.0	5.001562833972315	6.28280356917424	11.284366403146555	483.09793151592396	592.3236140398519	-4.458015267175572	6.381679389312977	0.3511450381679389	-0.06146926536731634	0.4767616191904048	0.043478260869565216	
1.7089494861034644E12	2.934782608695652	-6.119565217391304	4.891304347826087	3942.8571428571427	128.0	128.0	4.975166317840376	6.2879963264460965	11.263162644286473	483.0989412187268	592.3250564724275	-3.6030534351145036	8.335877862595419	0.7175572519083969	-0.06596701649175413	0.46926536731634183	0.043478260869565216	
1.7089494861229966E12	2.967391304347826	-6.0978260869565215	5.010869565217392	3942.8571428571427	128.0	128.0	4.986561535186951	6.25655129629985	11.243112831486801	483.10031152967355	592.3286625538663	-2.259541984732824	7.236641221374046	0.8549618320610687	-0.05547226386806597	0.4677661169415292	0.05697151424287856	
1.7089494861425288E12	3.032608695652174	-6.065217391304348	4.826086956521739	3920.879120879121	128.0	128.0	4.99290823851922	6.30797401761699	11.30088225613621	483.09735454289375	592.3239746479958	-1.7557251908396947	8.030534351145038	1.2061068702290076	-0.05247376311844078	0.4752623688155922	0.05697151424287856	
1.708949486162061E12	2.9239130434782608	-6.010869565217392	4.858695652173913	3942.8571428571427	128.0	128.0	4.998822212078835	6.3174940726153945	11.31631628469423	483.09886909709803	592.3254170805714	-2.0610687022900764	7.770992366412213	1.282442748091603	-0.05247376311844078	0.45277361319340326	0.041979010494752625	
1.7089494861815933E12	2.934782608695652	-6.021739130434782	4.913043478260869	3942.8571428571427	128.0	128.0	5.0014185907147635	6.3079018959882145	11.309320486702978	483.09692181312107	592.3281577024649	-3.8167938931297707	6.809160305343511	0.366412213740458	-0.05397301349325337	0.4737631184407796	0.05847076461769115	
1.7089494862011255E12	2.967391304347826	-6.032608695652174	4.967391304347826	3941.391941391941	128.0	128.0	5.0144004838944065	6.337399642157512	11.351800126051918	483.09677756986355	592.3025545242494	-5.6183206106870225	6.549618320610687	0.2900763358778626	-0.046476761619190406	0.4512743628185907	0.047976011994003	
1.7089494862206577E12	2.9782608695652173	-6.08695652173913	4.923913043478261	3942.8571428571427	128.0	128.0	5.012381078288684	6.3158352751535505	11.328216353442235	483.0961284752046	592.318132796065	-4.625954198473282	6.641221374045801	0.8091603053435115	-0.07346326836581708	0.46176911544227883	0.050974512743628186	
1.70894948624019E12	2.9565217391304346	-6.076086956521739	4.989130434782608	3919.4139194139193	128.0	128.0	5.012381078288684	6.337616007043839	11.349997085332523	483.0974987861513	592.3164018769744	-3.3587786259541983	7.358778625954198	0.9465648854961831	-0.05997001499250375	0.4752623688155922	0.04947526236881559	
1.7089494862597222E12	2.9565217391304346	-6.065217391304348	4.913043478260869	3944.322344322344	128.0	128.0	5.000481009540678	6.288933907620182	11.28941491716086	483.09439755611396	592.3160412688305	-3.0381679389312977	7.679389312977099	0.9770992366412213	-0.05697151424287856	0.4587706146926537	0.05847076461769115	
1.7089494862792544E12	2.934782608695652	-6.043478260869565	4.880434782608695	3942.8571428571427	128.0	128.0	4.997956752533526	6.3089115987910755	11.306868351324601	483.09504665077293	592.2980829832653	-3.1908396946564883	7.709923664122137	0.7786259541984732	-0.05247376311844078	0.4677661169415292	0.05997001499250375	
1.7089494862987866E12	2.9456521739130435	-6.021739130434782	4.9021739130434785	3919.4139194139193	128.0	128.0	4.999904036510472	6.297155773300622	11.297059809811094	483.0938927047125	592.3083963761802	-3.4045801526717554	7.358778625954198	1.2519083969465647	-0.05547226386806597	0.4677661169415292	0.05697151424287856	
1.7089494863183188E12	2.9130434782608696	-6.043478260869565	4.9021739130434785	3942.8571428571427	128.0	128.0	4.9911051977998255	6.313094653260071	11.304199851059897	483.09079147467514	592.3054393894005	-4.33587786259542	7.343511450381679	0.8702290076335878	-0.05397301349325337	0.46926536731634183	0.05847076461769115	
1.708949486337851E12	2.934782608695652	-6.032608695652174	4.956521739130435	3942.8571428571427	128.0	128.0	4.988003967762467	6.271480473456441	11.259484441218907	483.09180117747803	592.3151758092852	-4.67175572519084	6.946564885496183	0.9007633587786259	-0.06146926536731634	0.4587706146926537	0.043478260869565216	
1.7089494863573833E12	2.9456521739130435	-6.054347826086956	4.945652173913043	3941.391941391941	128.0	128.0	4.993629454806978	6.290448461824473	11.284077916631452	483.0925945153945	592.3093339573544	-3.7557251908396947	7.694656488549618	0.8091603053435115	-0.04947526236881559	0.46926536731634183	0.06146926536731634	
1.7089494863769155E12	2.934782608695652	-6.032608695652174	4.923913043478261	3942.8571428571427	128.0	128.0	4.984109399808574	6.287491475044666	11.27160087485324	483.0918732991068	592.3222437289052	-3.4351145038167936	7.404580152671755	0.7480916030534351	-0.04947526236881559	0.4662668665667166	0.06146926536731634	
1.7089494863964478E12	2.9239130434782608	-6.032608695652174	4.891304347826087	3941.391941391941	128.0	128.0	4.991970657345135	6.295280610952451	11.287251268297586	483.09281088028087	592.3287346754951	-3.7709923664122136	7.83206106870229	1.1603053435114503	-0.05397301349325337	0.46926536731634183	0.05547226386806597	
1.70894948641598E12	2.9130434782608696	-6.054347826086956	4.923913043478261	3941.391941391941	128.0	128.0	4.999182820222714	6.297660624702052	11.296843444924766	483.0906472314176	592.3211619044736	-4.549618320610687	7.465648854961832	0.9007633587786259	-0.05547226386806597	0.46026986506746626	0.046476761619190406	
1.7089494864355122E12	2.9239130434782608	-6.065217391304348	4.923913043478261	3941.391941391941	128.0	128.0	4.9815130211726455	6.269028338078062	11.250541359250708	483.0897096502435	592.3247679859123	-4.65648854961832	7.358778625954198	0.9770992366412213	-0.05397301349325337	0.4662668665667166	0.04047976011994003	
1.7089494864550444E12	2.9456521739130435	-6.054347826086956	4.913043478260869	3919.4139194139193	128.0	128.0	4.98742699473226	6.298093354474707	11.285520349206967	483.0925945153945	592.3214503909887	-4.33587786259542	7.083969465648854	0.8702290076335878	-0.05397301349325337	0.4767616191904048	0.06146926536731634	
1.7089494864745767E12	2.934782608695652	-6.054347826086956	4.9021739130434785	3915.0183150183148	128.0	128.0	4.989302157080431	6.312734045116192	11.302036202196623	483.09266663702334	592.3142382281111	-3.7404580152671754	7.786259541984733	0.7633587786259541	-0.05547226386806597	0.4752623688155922	0.046476761619190406	
1.708949486494109E12	2.9239130434782608	-6.065217391304348	4.913043478260869	3942.8571428571427	128.0	128.0	4.9914658059437045	6.333721439089947	11.325187245033652	483.09180117747803	592.3189982556103	-4.152671755725191	7.251908396946565	0.7938931297709924	-0.06596701649175413	0.46926536731634183	0.029985007496251874	
1.708949486513641E12	2.902173913043478	-6.043478260869565	4.934782608695652	3941.391941391941	128.0	128.0	5.018439295105851	6.327086249242574	11.345525544348424	483.09266663702334	592.3367401762891	-4.580152671755725	7.297709923664121	0.9007633587786259	-0.06296851574212893	0.4677661169415292	0.05247376311844078	
1.7089494865331733E12	2.9456521739130435	-6.043478260869565	4.9021739130434785	3942.8571428571427	128.0	128.0	5.041446094685328	6.297732746330827	11.339178841016155	483.08963752861473	592.3273643645483	-4.015267175572519	7.419847328244274	0.6717557251908397	-0.05547226386806597	0.46026986506746626	0.05997001499250375	
1.7089494865527056E12	2.9239130434782608	-6.032608695652174	4.9021739130434785	3919.4139194139193	128.0	128.0	5.052913433660678	6.321460762198062	11.37437419585874	483.0903587449025	592.3117139711039	-3.969465648854962	7.358778625954198	0.7175572519083969	-0.06746626686656672	0.4422788605697151	0.05697151424287856	
1.7089494865722378E12	2.9239130434782608	-6.065217391304348	4.913043478260869	3941.391941391941	128.0	128.0	5.047792798017597	6.296218192126536	11.344010990144133	483.0886278258119	592.317483701406	-5.145038167938931	6.809160305343511	0.6717557251908397	-0.06146926536731634	0.46176911544227883	0.05547226386806597	
1.70894948659177E12	2.9239130434782608	-6.043478260869565	4.869565217391305	3941.391941391941	128.0	128.0	4.99377369806453	6.295496975838779	11.289270673903308	483.088267217668	592.3227485803067	-5.419847328244274	6.900763358778626	0.42748091603053434	-0.06296851574212893	0.4677661169415292	0.04947526236881559	
1.7089494866113022E12	2.9239130434782608	-6.054347826086956	4.8478260869565215	3919.4139194139193	128.0	128.0	4.9846142512100045	6.281577501485051	11.266191752695056	483.08812297441045	592.3214503909887	-3.83206106870229	6.7328244274809155	0.6717557251908397	-0.05397301349325337	0.46926536731634183	0.050974512743628186	
1.7089494866308345E12	2.902173913043478	-6.043478260869565	4.880434782608695	3944.322344322344	128.0	128.0	5.106067074068436	6.4411105443371	11.547177618405536	483.08516598763066	592.5102648151237	-2.610687022900763	7.3893129770992365	0.8549618320610687	-0.047976011994003	0.46476761619190404	0.06746626686656672	
1.7089494866503667E12	2.9239130434782608	-6.054347826086956	4.978260869565217	3942.8571428571427	128.0	128.0	5.5262476833161935	7.071814187981389	12.598061871297583	483.0829302171386	592.2847404819418	-4.2748091603053435	8.106870229007633	0.564885496183206	-0.06746626686656672	0.4752623688155922	0.06746626686656672	
1.708949486669899E12	2.9456521739130435	-6.0978260869565215	4.880434782608695	3941.391941391941	128.0	128.0	4.869940861456497	6.052591330121915	10.922532191578412	483.0864641769486	592.4043902640808	-4.916030534351145	6.824427480916031	0.4580152671755725	-0.06896551724137931	0.4737631184407796	0.050974512743628186	
1.7089494866894312E12	3.032608695652174	-6.010869565217392	4.260869565217392	3942.8571428571427	128.0	128.0	4.993268846663099	5.9661174972197415	10.95938634388284	483.0846611362292	592.4542984311937	-5.068702290076335	-0.24427480916030533	0.07633587786259542	-0.05547226386806597	0.46476761619190404	0.05997001499250375	
1.7089494867089634E12	2.619565217391304	-5.978260869565217	5.217391304347826	3920.879120879121	128.0	128.0	4.990960954542274	6.215730454412753	11.206691408955027	483.0853102308882	592.3887398706365	-5.251908396946565	11.404580152671755	-0.6259541984732824	-0.05247376311844078	0.45727136431784104	0.05247376311844078	
1.7089494867284956E12	2.9782608695652173	-6.25	4.967391304347826	3942.8571428571427	128.0	128.0	4.996153711814131	6.279125366106674	11.275279077920805	483.0855265957745	592.3361632032589	-8.65648854961832	7.251908396946565	-0.061068702290076333	-0.05547226386806597	0.4707646176911544	0.04947526236881559	
1.7089494867480278E12	3.010869565217391	-6.08695652173913	4.771739130434782	3941.391941391941	128.0	128.0	5.003005266547831	6.268162878532754	11.271168145080585	483.08386779831267	592.3370286628043	0.0916030534351145	6.351145038167939	1.1755725190839694	-0.07346326836581708	0.46176911544227883	0.047976011994003	
1.70894948676756E12	3.0543478260869565	-5.891304347826087	4.815217391304348	3919.4139194139193	128.0	128.0	5.019448997908712	6.281144771712396	11.300593769621107	483.0810550547904	592.337749879092	-0.8244274809160305	6.809160305343511	0.7175572519083969	-0.05697151424287856	0.4512743628185907	0.047976011994003	
1.7089494867870923E12	2.869565217391304	-6.010869565217392	4.880434782608695	3942.8571428571427	128.0	128.0	5.033224229004888	6.286193285726701	11.319417514731589	483.07975686547246	592.3344322841683	-10.48854961832061	7.297709923664121	0.16793893129770993	-0.04947526236881559	0.4662668665667166	0.05847076461769115	
1.7089494868066245E12	2.891304347826087	-6.184782608695652	4.880434782608695	3941.391941391941	128.0	128.0	5.074766287179743	6.286049042469148	11.360815329648892	483.0762950272912	592.3603239488988	-8.580152671755725	6.290076335877862	0.183206106870229	-0.06896551724137931	0.4587706146926537	0.047976011994003	
1.7089494868261567E12	2.9782608695652173	-6.130434782608695	4.891304347826087	3941.391941391941	128.0	128.0	5.095609437895947	6.276673230728296	11.372282668624242	483.0732659188826	592.3708537067001	-3.66412213740458	6.534351145038167	0.21374045801526717	-0.04497751124437781	0.46476761619190404	0.05247376311844078	
1.708949486845689E12	3.0217391304347827	-6.119565217391304	4.83695652173913	3941.391941391941	128.0	128.0	5.15655221421149	6.236285118613854	11.392837332825344	483.0745641082006	592.423646738964	-3.16030534351145	6.7328244274809155	0.2595419847328244	-0.05697151424287856	0.46926536731634183	0.05847076461769115	
1.7089494868652212E12	2.9782608695652173	-6.119565217391304	4.760869565217392	3920.879120879121	128.0	128.0	5.163692255460293	6.25503674209556	11.418728997555853	483.0721119728222	592.433960131879	-2.7022900763358777	6.824427480916031	0.41221374045801523	-0.06146926536731634	0.46926536731634183	0.047976011994003	
1.7089494868847534E12	2.9565217391304346	-6.076086956521739	4.782608695652174	3941.391941391941	128.0	128.0	5.138882415161421	6.320739545910304	11.459621961071726	483.0726889458524	592.4268200906301	-2.0	6.381679389312977	0.2900763358778626	-0.04497751124437781	0.4752623688155922	0.06446776611694152	
1.7089494869042856E12	2.9456521739130435	-6.065217391304348	4.804347826086956	3941.391941391941	128.0	128.0	5.069068678506456	6.386225984838722	11.455294663345178	483.0709580267618	592.3834749917359	-3.4351145038167936	6.061068702290076	0.6870229007633587	-0.06596701649175413	0.4587706146926537	0.05847076461769115	
1.7089494869238179E12	2.9782608695652173	-6.076086956521739	4.83695652173913	3919.4139194139193	128.0	128.0	5.021973254915864	6.37360469980296	11.395577954718824	483.0687222562698	592.3738106934799	-4.229007633587786	6.717557251908397	0.4427480916030534	-0.05997001499250375	0.46476761619190404	0.05697151424287856	
1.70894948694335E12	2.967391304347826	-6.043478260869565	4.8478260869565215	3928.205128205128	128.0	128.0	4.984542129581229	6.364950104349864	11.349492233931093	483.06908286441364	592.3988368986651	-3.877862595419847	6.763358778625954	0.32061068702290074	-0.05397301349325337	0.4587706146926537	0.05547226386806597	
1.7089494869628823E12	2.9782608695652173	-6.043478260869565	4.815217391304348	3941.391941391941	128.0	128.0	4.984542129581229	6.344539683406316	11.329081812987544	483.0685780130122	592.3886677490077	-2.9923664122137406	6.213740458015267	0.9618320610687022	-0.06746626686656672	0.46026986506746626	0.04947526236881559	
1.7089494869824146E12	2.9130434782608696	-6.076086956521739	4.804347826086956	3941.391941391941	128.0	128.0	4.979421493938148	6.3428808859444725	11.32230237988262	483.0695877158151	592.3845568161674	-2.183206106870229	8.610687022900763	0.6870229007633587	-0.06296851574212893	0.4677661169415292	0.041979010494752625	
1.7089494870019468E12	3.0217391304347827	-6.065217391304348	4.760869565217392	3941.391941391941	128.0	128.0	4.986705778444502	6.330692330681364	11.317398109125866	483.06908286441364	592.3735222069648	-3.2671755725190836	6.427480916030534	1.0381679389312977	-0.05547226386806597	0.46026986506746626	0.046476761619190406	
1.708949487021479E12	2.9239130434782608	-6.021739130434782	4.858695652173913	3923.8095238095234	128.0	128.0	4.982955453748161	6.358531279388819	11.34148673313698	483.07052529698916	592.3598912191262	-2.9618320610687023	7.893129770992366	0.7480916030534351	-0.05397301349325337	0.46176911544227883	0.05847076461769115	
1.7089494870410112E12	2.9782608695652173	-6.054347826086956	4.826086956521739	3915.0183150183148	128.0	128.0	4.989590643595534	6.358531279388819	11.348121922984353	483.0677125534669	592.383402870107	-4.305343511450381	6.2748091603053435	0.16793893129770993	-0.05247376311844078	0.46026986506746626	0.06746626686656672	
1.7089494870605435E12	3.0	-6.065217391304348	4.815217391304348	3942.8571428571427	128.0	128.0	4.991898535716359	6.360262198479438	11.352160734195797	483.0703810537316	592.3747482746539	-4.824427480916031	6.671755725190839	0.8549618320610687	-0.034482758620689655	0.4767616191904048	0.05547226386806597	
1.7089494870800757E12	3.0	-6.08695652173913	4.804347826086956	3920.879120879121	128.0	128.0	4.996153711814131	6.3699986183641695	11.3661523301783	483.06965983744385	592.3759743423432	-5.022900763358779	6.519083969465648	0.6717557251908397	-0.06896551724137931	0.4662668665667166	0.05847076461769115	
1.708949487099608E12	2.9891304347826084	-6.0978260869565215	4.8478260869565215	3944.322344322344	128.0	128.0	4.992980360147996	6.368411942531102	11.361392302679098	483.0726889458524	592.3696276390109	-4.152671755725191	6.931297709923664	0.7786259541984732	-0.06896551724137931	0.46176911544227883	0.05547226386806597	
1.7089494871191401E12	2.967391304347826	-6.130434782608695	4.83695652173913	3942.8571428571427	128.0	128.0	5.00062525279823	6.3583149145024915	11.358940167300721	483.07261682422364	592.364146395224	-4.091603053435114	7.297709923664121	0.8702290076335878	-0.06596701649175413	0.46176911544227883	0.05847076461769115	
1.7089494871386724E12	2.9891304347826084	-6.076086956521739	4.826086956521739	3942.8571428571427	128.0	128.0	4.986200927043072	6.370864077909479	11.35706500495255	483.07023681047406	592.3607566786715	-2.610687022900763	7.557251908396946	1.3129770992366412	-0.0704647676161919	0.4677661169415292	0.05697151424287856	
1.7089494871582046E12	2.967391304347826	-6.054347826086956	4.826086956521739	3942.8571428571427	128.0	128.0	4.979709980453251	6.333721439089947	11.313431419543198	483.0698040807014	592.3472699340904	-2.4580152671755724	7.633587786259541	1.5114503816793892	-0.05697151424287856	0.4737631184407796	0.050974512743628186	
1.7089494871777368E12	2.9565217391304346	-6.043478260869565	4.826086956521739	3925.274725274725	128.0	128.0	4.982162115831628	6.342015426399163	11.32417754223079	483.07052529698916	592.3611894084441	-3.450381679389313	7.32824427480916	1.0534351145038168	-0.06746626686656672	0.4677661169415292	0.04947526236881559	
1.708949487197269E12	2.9565217391304346	-6.08695652173913	4.804347826086956	3941.391941391941	128.0	128.0	4.9797821020820265	6.3264371545835925	11.306219256665619	483.0710301483906	592.3561408944298	-4.244274809160305	6.564885496183206	1.3129770992366412	-0.037481259370314844	0.4677661169415292	0.05697151424287856	
1.7089494872168013E12	2.9456521739130435	-6.108695652173913	4.804347826086956	3942.8571428571427	128.0	128.0	4.984037278179798	6.33400992560505	11.318047203784849	483.072184094451	592.3698440038972	-3.2061068702290076	6.564885496183206	0.9312977099236641	-0.05697151424287856	0.4512743628185907	0.043478260869565216	
1.7089494872363335E12	2.9782608695652173	-6.065217391304348	4.793478260869565	3917.948717948718	128.0	128.0	4.98007058859713	6.332062641628104	11.312133230225234	483.0713186349057	592.3607566786715	-3.3435114503816794	7.587786259541985	1.099236641221374	-0.05547226386806597	0.46476761619190404	0.05247376311844078	
1.7089494872558657E12	2.9456521739130435	-6.08695652173913	4.826086956521739	3942.8571428571427	128.0	128.0	4.9784117911352865	6.322903194773579	11.301314985908865	483.070885905133	592.3640742735952	-3.4045801526717554	7.480916030534351	1.0687022900763359	-0.041979010494752625	0.4542728635682159	0.043478260869565216	
1.708949487275398E12	2.934782608695652	-6.08695652173913	4.804347826086956	3942.8571428571427	128.0	128.0	4.984325764694901	6.326797762727471	11.311123527422373	483.0713186349057	592.3724403825331	-3.9847328244274807	7.49618320610687	0.916030534351145	-0.047976011994003	0.46026986506746626	0.0704647676161919	
1.7089494872949302E12	2.9239130434782608	-6.08695652173913	4.793478260869565	3941.391941391941	128.0	128.0	4.9732911554922055	6.3401402640509925	11.313431419543198	483.07348228376895	592.3703488552986	-3.877862595419847	7.450381679389313	1.129770992366412	-0.05697151424287856	0.4737631184407796	0.06146926536731634	
1.7089494873144624E12	2.9456521739130435	-6.08695652173913	4.793478260869565	3942.8571428571427	128.0	128.0	4.975022074582824	6.314609207464363	11.289631282047187	483.0725447025949	592.3717912878742	-3.3740458015267176	6.946564885496183	0.7938931297709924	-0.07346326836581708	0.4542728635682159	0.05847076461769115	
1.7089494873339946E12	2.9456521739130435	-6.0978260869565215	4.793478260869565	3942.8571428571427	128.0	128.0	4.991970657345135	6.328312316931763	11.320282974276898	483.07175136467833	592.3732337204497	-3.4351145038167936	7.083969465648854	0.8396946564885496	-0.05547226386806597	0.4707646176911544	0.034482758620689655	
1.7089494873535269E12	2.9239130434782608	-6.065217391304348	4.793478260869565	3942.8571428571427	128.0	128.0	4.976248142272013	6.346919697155917	11.32316783942793	483.07283318911	592.3653724629131	-3.4045801526717554	7.221374045801526	0.9618320610687022	-0.05997001499250375	0.45727136431784104	0.046476761619190406	
1.708949487373059E12	2.9456521739130435	-6.0978260869565215	4.815217391304348	3941.391941391941	128.0	128.0	4.990528224769619	6.315691031896	11.306219256665619	483.06908286441364	592.3669591387462	-3.2061068702290076	7.099236641221374	0.9312977099236641	-0.06896551724137931	0.4662668665667166	0.05847076461769115	
1.708949487392591E12	2.9239130434782608	-6.08695652173913	4.782608695652174	3917.948717948718	128.0	128.0	4.991393684314929	6.3751192540072505	11.36651293832218	483.072184094451	592.3717912878742	-3.1755725190839694	7.083969465648854	0.9312977099236641	-0.0704647676161919	0.46476761619190404	0.04947526236881559	
