"sep=	"
Shimmer_6D72_TimestampSync_Unix_CAL	Shimmer_6D72_Accel_LN_X_CAL	Shimmer_6D72_Accel_LN_Y_CAL	Shimmer_6D72_Accel_LN_Z_CAL	Shimmer_6D72_Battery_CAL	Shimmer_6D72_ECG_EMG_Status1_CAL	Shimmer_6D72_ECG_EMG_Status2_CAL	Shimmer_6D72_ECG_LA-RA_24BIT_CAL	Shimmer_6D72_ECG_LL-LA_24BIT_CAL	Shimmer_6D72_ECG_LL-RA_24BIT_CAL	Shimmer_6D72_ECG_RESP_24BIT_CAL	Shimmer_6D72_ECG_Vx-RL_24BIT_CAL	Shimmer_6D72_Gyro_X_CAL	Shimmer_6D72_Gyro_Y_CAL	Shimmer_6D72_Gyro_Z_CAL	Shimmer_6D72_Mag_X_CAL	Shimmer_6D72_Mag_Y_CAL	Shimmer_6D72_Mag_Z_CAL	
ms	m/(s^2)	m/(s^2)	m/(s^2)	mV	no_units	no_units	mV	mV	mV	mV	mV	deg/s	deg/s	deg/s	local_flux	local_flux	local_flux	
1.710402471172576E12	0.9565217391304348	-6.358695652173913	3.5217391304347827	3938.461538461538	128.0	128.0	-6.543667500456274	55.01466691668831	48.47099941623204	493.03383982584955	585.3351003331067	-4.366412213740458	6.8396946564885495	0.6106870229007634	0.1649175412293853	0.7796101949025487	0.9385307346326837	
1.7104024711921077E12	0.9891304347826086	-6.3478260869565215	3.467391304347826	3936.9963369963366	128.0	128.0	-6.5410711218203454	55.010844470363196	48.46977334854285	493.0730739919036	585.3193778180334	-3.236641221374046	7.374045801526718	0.5343511450381679	0.15442278860569714	0.7871064467766117	0.9310344827586207	
1.7104024712116394E12	0.9565217391304348	-6.33695652173913	3.510869565217391	3936.9963369963366	128.0	128.0	-6.544460838372808	55.000747442334585	48.45628660396178	493.06752062648786	585.327599683714	-2.5801526717557253	7.007633587786259	0.6259541984732824	0.17991004497751123	0.7841079460269865	0.9205397301349325	
1.7104024712311711E12	0.9456521739130435	-6.304347826086956	3.4782608695652173	3936.9963369963366	128.0	128.0	-6.5461917574634265	54.99908864487274	48.45289688740932	493.0652848559958	585.3265178592823	-2.6259541984732824	6.793893129770992	0.7938931297709924	0.17241379310344826	0.7841079460269865	0.9460269865067465	
1.710402471250703E12	0.967391304347826	-6.315217391304348	3.543478260869565	3920.879120879121	128.0	128.0	-6.54561478443322	54.996131658092935	48.450516873659716	493.06066907175415	585.3222626831845	-3.068702290076336	7.145038167938931	0.5801526717557252	0.1649175412293853	0.7841079460269865	0.9205397301349325	
1.7104024712702349E12	0.9456521739130435	-6.326086956521739	3.467391304347826	3931.135531135531	128.0	128.0	-6.545326297918117	54.99259769828292	48.447271400364805	493.05057204372554	585.3231281427298	-3.6030534351145036	6.99236641221374	0.6870229007633587	0.1649175412293853	0.7901049475262368	0.9415292353823088	
1.7104024712897666E12	0.967391304347826	-6.33695652173913	3.5	3935.531135531135	128.0	128.0	-6.5307577289054075	54.98488068400391	48.454122955098505	493.0631933287613	585.3038716678467	-3.0839694656488548	6.519083969465648	0.7633587786259541	0.15742128935532235	0.7721139430284857	0.9415292353823088	
1.7104024713092983E12	0.9782608695652174	-6.304347826086956	3.4891304347826084	3915.0183150183148	128.0	128.0	-6.537897770154211	54.98906373847291	48.4511659683187	493.0290797983503	585.3019965054986	-2.381679389312977	6.824427480916031	0.8854961832061068	0.17241379310344826	0.7976011994002998	0.9310344827586207	
1.71040247132883E12	0.9782608695652174	-6.315217391304348	3.467391304347826	3938.461538461538	128.0	128.0	-6.540422027161363	54.99043404941965	48.450012022258285	493.00982332346723	585.293774639818	-2.916030534351145	6.687022900763359	0.8396946564885496	0.14842578710644677	0.793103448275862	0.9370314842578711	
1.7104024713483618E12	0.9565217391304348	-6.33695652173913	3.4782608695652173	3938.461538461538	128.0	128.0	-6.534291688715421	54.98798191404127	48.45369022532585	493.013429404906	585.3025734785288	-3.49618320610687	6.931297709923664	0.8396946564885496	0.17691154422788605	0.7691154422788605	0.9235382308845577	
1.7104024713678938E12	0.967391304347826	-6.326086956521739	3.5217391304347827	3936.9963369963366	128.0	128.0	-6.52643043117886	55.02562940426223	48.499198973083374	493.0256179601691	585.2952170723936	-3.5877862595419847	6.778625954198473	0.7786259541984732	0.14392803598200898	0.7961019490254873	0.9250374812593702	
1.7104024713874255E12	0.9565217391304348	-6.326086956521739	3.510869565217391	3938.461538461538	128.0	128.0	-6.519218268301281	55.023898485171614	48.504680216870334	493.03196466350136	585.2977413294008	-3.49618320610687	6.870229007633587	0.47328244274809156	0.16941529235382308	0.7691154422788605	0.9565217391304347	
1.7104024714069573E12	0.9565217391304348	-6.33695652173913	3.510869565217391	3923.8095238095234	128.0	128.0	-6.503712118114486	55.019715430702625	48.51600331258814	493.00643360691475	585.3143293040192	-3.145038167938931	6.717557251908397	0.6717557251908397	0.1664167916041979	0.7811094452773613	0.9505247376311844	
1.710402471426489E12	0.9565217391304348	-6.326086956521739	3.5	3938.461538461538	128.0	128.0	-6.501692712508764	54.96951877707467	48.467826064565905	493.01681912145847	585.3257245213657	-3.282442748091603	6.870229007633587	0.7480916030534351	0.1619190404797601	0.7901049475262368	0.9280359820089955	
1.7104024714460208E12	0.967391304347826	-6.326086956521739	3.4891304347826084	3938.461538461538	128.0	128.0	-6.556288785492037	54.98423158934493	48.42794280385289	493.02331006804826	585.3311336435239	-2.8854961832061066	6.564885496183206	0.8244274809160305	0.1649175412293853	0.7766116941529235	0.9460269865067465	
1.7104024714655525E12	0.9565217391304348	-6.33695652173913	3.4891304347826084	3913.5531135531132	128.0	128.0	-6.553548163598557	54.981418845822674	48.42787068222412	493.0312434472136	585.3234887508737	-3.068702290076336	6.580152671755725	0.7480916030534351	0.17841079460269865	0.7811094452773613	0.9370314842578711	
1.7104024714850845E12	0.9565217391304348	-6.33695652173913	3.4782608695652173	3939.9267399267396	128.0	128.0	-6.550158447046095	54.98646735983698	48.436308912790885	493.01876640543543	585.3295469676908	-2.5801526717557253	6.717557251908397	0.9312977099236641	0.1829085457271364	0.7856071964017991	0.9370314842578711	
1.7104024715046162E12	0.9565217391304348	-6.304347826086956	3.4891304347826084	3936.9963369963366	128.0	128.0	-6.54424447348648	54.98733281938229	48.44308834589581	493.03924894800775	585.3231281427298	-2.8396946564885495	6.687022900763359	0.5801526717557252	0.1664167916041979	0.793103448275862	0.9400299850074962	
1.710402471524148E12	0.9565217391304348	-6.315217391304348	3.510869565217391	3936.9963369963366	128.0	128.0	-6.396467256124885	55.007382632181965	48.61091537605708	493.03441679887976	585.5037928228131	-3.282442748091603	6.793893129770992	0.4427480916030534	0.17091454272863568	0.7811094452773613	0.9430284857571214	
1.7104024715436797E12	0.9456521739130435	-6.33695652173913	3.467391304347826	3936.9963369963366	128.0	128.0	-6.33675054749853	55.942078941116215	49.60532839361768	493.0367246910006	584.9111693991625	-2.6717557251908395	6.427480916030534	0.5954198473282443	0.17991004497751123	0.7721139430284857	0.9385307346326837	
1.7104024715632114E12	0.9782608695652174	-6.326086956521739	3.5217391304347827	3925.274725274725	128.0	128.0	-6.642690496765435	55.58392293261563	48.941232435850196	493.0119148507017	584.7526460591133	-2.091603053435114	7.129770992366412	0.4580152671755725	0.1664167916041979	0.7781109445277361	0.9220389805097451	
1.7104024715827434E12	1.0	-6.293478260869565	3.391304347826087	3936.9963369963366	128.0	128.0	-6.5904023159029865	55.077340612094474	48.48693829619149	493.05028355721043	585.2878606662584	-1.8473282442748091	6.65648854961832	0.7480916030534351	0.17841079460269865	0.7886056971514243	0.9400299850074962	
1.7104024716022751E12	0.9021739130434783	-6.271739130434782	3.4891304347826084	3936.9963369963366	128.0	128.0	-6.531046215420511	55.07258058459528	48.54153436917477	493.0377343938034	585.3492361723467	-1.9389312977099236	6.366412213740458	0.0	0.15742128935532235	0.7766116941529235	0.9385307346326837	
1.710402471621807E12	0.9130434782608695	-6.3478260869565215	3.641304347826087	3915.0183150183148	128.0	128.0	-6.511501254022272	55.04741013615253	48.53590888213026	493.0354265016826	585.3700072014341	-2.0763358778625953	6.33587786259542	0.2595419847328244	0.17091454272863568	0.7886056971514243	0.9325337331334332	
1.7104024716413386E12	0.967391304347826	-6.358695652173913	3.282608695652174	3938.461538461538	128.0	128.0	-6.49044173841974	55.04084706793393	48.55040532951419	493.0383113668336	585.3850085002194	-1.0534351145038168	5.969465648854961	-0.32061068702290074	0.1829085457271364	0.7781109445277361	0.9370314842578711	
1.7104024716608704E12	0.9891304347826086	-6.239130434782608	3.543478260869565	3936.9963369963366	128.0	128.0	-6.463828857401474	55.03334641854125	48.569517561139776	493.057495720088	585.3976297852552	3.16030534351145	5.358778625954198	-0.33587786259541985	0.1619190404797601	0.7871064467766117	0.9415292353823088	
1.7104024716804023E12	1.0217391304347825	-6.239130434782608	3.434782608695652	3936.9963369963366	128.0	128.0	-6.445293598806096	55.02310514725509	48.57781154844899	493.0521587195586	585.410251070291	2.3053435114503817	5.908396946564885	-0.030534351145038167	0.17991004497751123	0.7901049475262368	0.9490254872563718	
1.710402471699934E12	1.0217391304347825	-6.282608695652174	3.6304347826086953	3938.461538461538	128.0	128.0	-6.423729231802134	55.03212035085206	48.60839111904993	493.03946531289404	585.4288584505151	-0.9007633587786259	7.648854961832061	-0.13740458015267176	0.16941529235382308	0.7946026986506747	0.9385307346326837	
1.7104024717194658E12	0.9782608695652174	-6.358695652173913	3.608695652173913	3938.461538461538	128.0	128.0	-6.400217580821226	55.065801151490355	48.66558357066913	493.0554763144823	585.460736210434	-3.5725190839694654	7.877862595419847	0.3053435114503817	0.1664167916041979	0.7961019490254873	0.9325337331334332	
1.7104024717389976E12	0.967391304347826	-6.380434782608695	3.543478260869565	3936.9963369963366	128.0	128.0	-6.376922294726646	55.100419533302734	48.72349723857609	493.0329022446755	585.4945612543298	-3.068702290076336	7.755725190839694	0.5343511450381679	0.1664167916041979	0.7811094452773613	0.9370314842578711	
1.7104024717585293E12	0.9782608695652174	-6.380434782608695	3.5652173913043477	3936.9963369963366	128.0	128.0	-6.300689733110635	55.131431833676324	48.830742100565686	493.046244745999	585.5588937471979	-1.3435114503816794	7.358778625954198	0.2595419847328244	0.1649175412293853	0.7841079460269865	0.9385307346326837	
1.7104024717780613E12	1.0108695652173914	-6.358695652173913	3.619565217391304	3915.0183150183148	128.0	128.0	-6.278043541675037	55.165689607344824	48.887646065669784	493.03809500194734	585.5716592754912	-1.1603053435114503	7.114503816793893	0.48854961832061067	0.1619190404797601	0.7841079460269865	0.9385307346326837	
1.710402471797593E12	0.9891304347826086	-6.326086956521739	3.619565217391304	3939.9267399267396	128.0	128.0	-6.292251502543867	55.1866048796898	48.89435337714593	493.01862216217785	585.5191547297425	-1.4961832061068703	7.1603053435114505	0.6564885496183206	0.17691154422788605	0.7901049475262368	0.9385307346326837	
1.7104024718171248E12	0.967391304347826	-6.293478260869565	3.608695652173913	3939.9267399267396	128.0	128.0	-6.363724036660676	55.15191437624865	48.78819033958797	493.0273488792597	585.4305893696057	-1.7099236641221374	6.7328244274809155	0.9312977099236641	0.1634182908545727	0.800599700149925	0.9250374812593702	
1.7104024718366565E12	0.9456521739130435	-6.282608695652174	3.5652173913043477	3936.9963369963366	128.0	128.0	-6.4443560176320105	55.103665006597645	48.659308988965634	493.0304501092971	585.3814745404094	-1.6793893129770991	6.122137404580153	0.6106870229007634	0.1619190404797601	0.7946026986506747	0.9340329835082458	
1.7104024718561882E12	1.0	-6.304347826086956	3.5978260869565215	3939.9267399267396	128.0	128.0	-6.516117038263922	55.06140173213503	48.54528469387111	493.03528225842507	585.3462070639381	-1.4961832061068703	6.33587786259542	0.6717557251908397	0.1649175412293853	0.7946026986506747	0.9235382308845577	
1.7104024718757202E12	1.0	-6.315217391304348	3.5978260869565215	3928.205128205128	128.0	128.0	-6.523329201141501	55.04019797327495	48.51686877213345	493.0259064466842	585.3281766567442	-1.3893129770992365	5.969465648854961	0.48854961832061067	0.17241379310344826	0.7766116941529235	0.9385307346326837	
1.710402471895252E12	1.0108695652173914	-6.304347826086956	3.6304347826086953	3938.461538461538	128.0	128.0	-6.541648094850552	55.032264594109606	48.490616499259055	493.0214349057001	585.3406536985224	-1.2061068702290076	6.458015267175572	0.6870229007633587	0.17241379310344826	0.7841079460269865	0.9385307346326837	
1.7104024719147837E12	0.9565217391304348	-6.326086956521739	3.5760869565217392	3938.461538461538	128.0	128.0	-6.542225067880758	55.027143958466525	48.48491889058577	492.99417293002284	585.3413749148101	-2.4580152671755724	5.66412213740458	0.38167938931297707	0.18440779610194902	0.7871064467766117	0.9385307346326837	
1.7104024719343154E12	0.9891304347826086	-6.33695652173913	3.717391304347826	3915.0183150183148	128.0	128.0	-6.550374811932422	55.035005216003086	48.484630404070664	493.02049732452605	585.3381294415152	-2.015267175572519	4.809160305343512	0.0916030534351145	0.1619190404797601	0.7976011994002998	0.9280359820089955	
1.7104024719538472E12	1.0108695652173914	-6.326086956521739	3.4891304347826084	3939.9267399267396	128.0	128.0	-6.542225067880758	55.02094149839181	48.47871643051105	493.0142948644513	585.3351003331067	-1.6335877862595418	5.419847328244274	0.030534351145038167	0.17241379310344826	0.7946026986506747	0.9340329835082458	
1.7104024719733792E12	0.9782608695652174	-6.25	3.6739130434782608	3938.461538461538	128.0	128.0	-6.554053014999988	55.02923548570102	48.475182470701036	493.0366525693718	585.3458464557942	-0.2748091603053435	5.847328244274809	0.21374045801526717	0.1619190404797601	0.7796101949025487	0.9460269865067465	
1.710402471992911E12	1.0	-6.271739130434782	3.6956521739130435	3936.9963369963366	128.0	128.0	-6.561770029278998	55.03695249998003	48.475182470701036	493.04811990834713	585.3361821575382	-1.9236641221374045	4.931297709923664	0.6564885496183206	0.17841079460269865	0.7856071964017991	0.9295352323838081	
1.7104024720124426E12	0.9891304347826086	-6.326086956521739	3.619565217391304	3936.9963369963366	128.0	128.0	-6.571650692421281	55.03659189183615	48.46494119941487	493.0507884086119	585.3379130766289	-3.9541984732824424	5.145038167938931	0.41221374045801523	0.17091454272863568	0.7781109445277361	0.9370314842578711	
1.7104024720319744E12	1.0326086956521738	-6.282608695652174	3.6630434782608696	3929.6703296703295	128.0	128.0	-6.579944679730497	55.03666401346493	48.45671933373443	493.0248246222526	585.3314221300391	-2.732824427480916	5.786259541984733	0.6259541984732824	0.18440779610194902	0.7901049475262368	0.9490254872563718	
1.710402472051506E12	1.0108695652173914	-6.315217391304348	3.608695652173913	3910.62271062271	128.0	128.0	-6.583695004426838	55.03522158088941	48.45152657646258	492.9985002277494	585.3328645626145	-2.396946564885496	6.8396946564885495	0.47328244274809156	0.1634182908545727	0.7886056971514243	0.9400299850074962	
1.710402472071038E12	1.0108695652173914	-6.33695652173913	3.6956521739130435	3938.461538461538	128.0	128.0	-6.589104126585022	55.04668891986476	48.45758479327974	492.9995099305523	585.3413749148101	-3.2061068702290076	7.786259541984733	0.8702290076335878	0.17391304347826086	0.7811094452773613	0.9295352323838081	
1.7104024720905698E12	0.967391304347826	-6.326086956521739	3.641304347826087	3915.0183150183148	128.0	128.0	-6.5962441678338255	55.04813135244028	48.451887184606456	493.02157914895764	585.3363264007958	-3.9541984732824424	7.770992366412213	1.2366412213740459	0.1829085457271364	0.7886056971514243	0.9190404797601199	
1.7104024721101016E12	0.967391304347826	-6.33695652173913	3.6630434782608696	3938.461538461538	128.0	128.0	-6.595234465030964	55.048708325470486	48.45347386043952	493.0259064466842	585.3273111971988	-3.7862595419847325	7.557251908396946	1.0381679389312977	0.17091454272863568	0.7886056971514243	0.9400299850074962	
1.7104024721296333E12	1.0217391304347825	-6.326086956521739	3.6739130434782608	3938.461538461538	128.0	128.0	-6.595162343402189	55.046833163122315	48.45167081972013	493.0229494599044	585.3216857101543	-4.381679389312977	6.916030534351145	1.7557251908396947	0.16941529235382308	0.8020989505247376	0.9310344827586207	
1.710402472149165E12	0.9782608695652174	-6.358695652173913	3.684782608695652	3936.9963369963366	128.0	128.0	-6.600499343931597	55.043731933084956	48.44323258915336	493.04811990834713	585.3189450882609	-5.7251908396946565	6.946564885496183	1.2061068702290076	0.17241379310344826	0.7796101949025487	0.9340329835082458	
1.7104024721686968E12	0.9891304347826086	-6.380434782608695	3.641304347826087	3939.9267399267396	128.0	128.0	-6.62393887328373	55.06645024614933	48.4425113728656	493.0202809596397	585.3185844801169	-3.877862595419847	7.404580152671755	1.0076335877862594	0.17841079460269865	0.7856071964017991	0.9325337331334332	
1.7104024721882288E12	0.9782608695652174	-6.3478260869565215	3.5978260869565215	3938.461538461538	128.0	128.0	-6.620693399988818	55.05620897486317	48.43551557487435	493.0357871098265	585.3155553717083	-2.549618320610687	6.641221374045801	0.7786259541984732	0.17991004497751123	0.7901049475262368	0.9235382308845577	
1.7104024722077605E12	1.0	-6.304347826086956	3.652173913043478	3936.9963369963366	128.0	128.0	-6.609226061013468	55.05476654228765	48.445540481274186	493.0450186783098	585.3100020062926	-1.5572519083969465	6.5038167938931295	0.7633587786259541	0.17391304347826086	0.7781109445277361	0.9250374812593702	
1.7104024722272922E12	1.0108695652173914	-6.315217391304348	3.608695652173913	3938.461538461538	128.0	128.0	-6.596316289462601	55.04279435191087	48.44647806244827	493.0432877592192	585.315339006822	-0.7022900763358778	7.648854961832061	0.9770992366412213	0.15892053973013492	0.793103448275862	0.9325337331334332	
1.710402472246824E12	0.9782608695652174	-6.304347826086956	3.5760869565217392	3869.5970695970695	128.0	128.0	-6.595667194803619	55.03161549945062	48.435948304647006	493.02331006804826	585.3257245213657	-0.3969465648854962	8.702290076335878	1.1755725190839694	0.17691154422788605	0.7946026986506747	0.9235382308845577	
1.7104024722663557E12	1.0217391304347825	-6.304347826086956	3.652173913043478	3939.9267399267396	128.0	128.0	-6.593864154084224	55.02195120119467	48.428087047110445	493.02006459475336	585.3195220612911	0.41221374045801523	8.244274809160306	0.8854961832061068	0.1619190404797601	0.7796101949025487	0.9340329835082458	
1.7104024722858877E12	0.9891304347826086	-6.315217391304348	3.7065217391304346	3938.461538461538	128.0	128.0	-6.588238667039713	55.02887487755714	48.44063621051743	493.0271325143734	585.3093529116336	-0.24427480916030533	7.694656488549618	1.129770992366412	0.1619190404797601	0.7721139430284857	0.9340329835082458	
1.7104024723054194E12	1.0	-6.315217391304348	3.684782608695652	3938.461538461538	128.0	128.0	-6.577636787609672	55.05390108274234	48.47626429513267	493.04011440755306	585.3015637757259	-2.045801526717557	7.251908396946565	0.7022900763358778	0.16941529235382308	0.7841079460269865	0.9310344827586207	
1.7104024723249512E12	0.9891304347826086	-6.315217391304348	3.6956521739130435	3913.5531135531132	128.0	128.0	-6.564871259316357	55.03067791827654	48.46580665896018	493.01804518914764	585.304737127392	-2.3053435114503817	6.625954198473282	0.47328244274809156	0.15742128935532235	0.7871064467766117	0.9235382308845577	
1.710402472344483E12	0.9891304347826086	-6.315217391304348	3.7065217391304346	3932.6007326007325	128.0	128.0	-6.56328458348329	55.04481375751659	48.481529174033305	493.001529336158	585.3151947635645	-2.0763358778625953	6.8396946564885495	0.1984732824427481	0.16941529235382308	0.7871064467766117	0.9460269865067465	
1.7104024723640146E12	0.9782608695652174	-6.315217391304348	3.6739130434782608	3938.461538461538	128.0	128.0	-6.561193056248791	54.99685287438069	48.4356598181319	493.0172518512311	585.3249311834492	-2.5343511450381677	6.8396946564885495	0.5801526717557252	0.1634182908545727	0.7781109445277361	0.9475262368815592	
1.7104024723835466E12	0.9891304347826086	-6.282608695652174	3.641304347826087	3936.9963369963366	128.0	128.0	-6.620332791844939	55.012935997597694	48.392603205752756	492.99987053869614	585.304737127392	-2.778625954198473	6.641221374045801	0.732824427480916	0.17841079460269865	0.7886056971514243	0.9325337331334332	
1.7104024724030784E12	0.9891304347826086	-6.282608695652174	3.6630434782608696	3913.5531135531132	128.0	128.0	-6.614346696656549	55.010339618961765	48.39599292230522	492.9934517137351	585.3027898434151	-1.9083969465648853	6.427480916030534	0.9770992366412213	0.17091454272863568	0.7856071964017991	0.9295352323838081	
1.71040247242261E12	1.0	-6.260869565217391	3.6304347826086953	3938.461538461538	128.0	128.0	-6.621126129761473	55.0156044978624	48.39447836810093	493.0273488792597	585.3006983161805	-2.33587786259542	5.877862595419847	0.8396946564885496	0.17391304347826086	0.7886056971514243	0.9400299850074962	
1.7104024724421418E12	0.9891304347826086	-6.271739130434782	3.6739130434782608	3938.461538461538	128.0	128.0	-6.617808534837787	55.00990688918911	48.392098354351326	493.00455844456656	585.3063959248539	-2.9770992366412212	6.198473282442748	1.2061068702290076	0.17391304347826086	0.7961019490254873	0.9325337331334332	
1.7104024724616736E12	1.0	-6.304347826086956	3.6630434782608696	3936.9963369963366	128.0	128.0	-6.56790036772494	54.97406243968754	48.406162071962605	493.0046305661954	585.3632277683291	-3.129770992366412	6.2748091603053435	1.083969465648855	0.1649175412293853	0.7796101949025487	0.9340329835082458	
1.7104024724812056E12	0.9891304347826086	-6.326086956521739	3.6956521739130435	3938.461538461538	128.0	128.0	-6.329249898105848	55.72347828429679	49.39422838619094	492.98241710453243	585.0797176456115	-2.33587786259542	5.83206106870229	0.8854961832061068	0.15892053973013492	0.7886056971514243	0.9145427286356821	
1.7104024725007373E12	0.9782608695652174	-6.326086956521739	3.717391304347826	3938.461538461538	128.0	128.0	-6.667428215435531	55.597698163711804	48.930269948276276	492.98083042869933	584.7981548068708	-1.129770992366412	6.122137404580153	1.0687022900763359	0.1664167916041979	0.7856071964017991	0.9250374812593702	
1.710402472520269E12	1.0326086956521738	-6.315217391304348	3.6956521739130435	3936.9963369963366	128.0	128.0	-6.663750012367966	55.057651407438684	48.39390139507072	493.01379001304986	585.2515834869843	-0.9007633587786259	6.473282442748092	1.114503816793893	0.1634182908545727	0.793103448275862	0.9295352323838081	
1.7104024725398008E12	0.9347826086956521	-6.260869565217391	3.5869565217391304	3936.9963369963366	128.0	128.0	-6.594585370371982	55.06233931330911	48.46775394293713	493.0109051478988	585.3284651432592	-1.66412213740458	6.1679389312977095	0.6412213740458015	0.17991004497751123	0.8020989505247376	0.9280359820089955	
1.7104024725593325E12	0.9782608695652174	-6.260869565217391	3.8260869565217392	3913.5531135531132	128.0	128.0	-6.579007098556412	55.0474822577813	48.46847515922489	493.0267719062295	585.3419518878403	-1.4198473282442747	6.030534351145038	0.6717557251908397	0.1619190404797601	0.8020989505247376	0.9235382308845577	
1.7104024725788645E12	0.9891304347826086	-6.293478260869565	3.5543478260869565	3912.0879120879117	128.0	128.0	-6.567179151437182	55.04726589289497	48.48008674145779	493.0247525006238	585.3462070639381	-3.32824427480916	6.473282442748092	0.48854961832061067	0.16941529235382308	0.7796101949025487	0.9175412293853074	
1.7104024725983962E12	1.0434782608695652	-6.260869565217391	3.760869565217391	3936.9963369963366	128.0	128.0	-6.541575973221776	55.03161549945062	48.49003952622885	493.0357871098265	585.3513276995811	-1.1603053435114503	6.99236641221374	1.0076335877862594	0.15592203898050974	0.7886056971514243	0.9400299850074962	
1.710402472617928E12	1.0	-6.260869565217391	3.5978260869565215	3935.531135531135	128.0	128.0	-6.522752228111295	55.043371324941084	48.52061909682979	493.0374459072883	585.3737575261305	-1.9083969465648853	6.870229007633587	0.7786259541984732	0.1649175412293853	0.7901049475262368	0.9205397301349325	
1.7104024726374597E12	0.9782608695652174	-6.282608695652174	3.760869565217391	3938.461538461538	128.0	128.0	-6.5098424565604285	55.04445314937272	48.534610692812294	493.0298731362669	585.3904176223776	-3.099236641221374	6.824427480916031	0.9618320610687022	0.1649175412293853	0.7946026986506747	0.9385307346326837	
1.7104024726569915E12	0.9782608695652174	-6.33695652173913	3.717391304347826	3938.461538461538	128.0	128.0	-6.476522264066013	55.06212294842279	48.58560068435678	493.0153045672542	585.4316711940373	-4.290076335877862	6.137404580152672	0.9923664122137404	0.17391304347826086	0.7886056971514243	0.9370314842578711	
1.7104024726765234E12	0.967391304347826	-6.358695652173913	3.7282608695652173	3936.9963369963366	128.0	128.0	-6.435629300550139	55.07149876016364	48.6358694596135	493.01379001304986	585.4685974679705	-4.198473282442748	5.572519083969466	1.099236641221374	0.17241379310344826	0.7871064467766117	0.9310344827586207	
1.7104024726960552E12	1.0217391304347825	-6.315217391304348	3.6956521739130435	3941.391941391941	128.0	128.0	-6.356367630525545	55.089961897130244	48.7335942666047	493.00852513414924	585.5327135959523	-2.045801526717557	6.091603053435114	1.2213740458015268	0.15742128935532235	0.7901049475262368	0.9385307346326837	
1.710402472715587E12	0.9891304347826086	-6.260869565217391	3.6956521739130435	3915.0183150183148	128.0	128.0	-6.311003126025573	55.10986746667236	48.79886434064679	493.0226609733893	585.5508882464038	-1.7404580152671756	6.702290076335878	1.4045801526717556	0.15892053973013492	0.7856071964017991	0.9295352323838081	
1.7104024727351187E12	0.9891304347826086	-6.217391304347826	3.7391304347826084	3939.9267399267396	128.0	128.0	-6.28979936716549	55.12948454969938	48.839685182533884	493.01270818861826	585.5309826768616	-2.015267175572519	6.65648854961832	1.0229007633587786	0.1664167916041979	0.7811094452773613	0.9250374812593702	
1.7104024727546504E12	0.9891304347826086	-6.228260869565217	3.6739130434782608	3938.461538461538	128.0	128.0	-6.401587891767966	55.12955667132815	48.727968779560186	493.01746821611744	585.4264784367655	-3.5572519083969465	6.702290076335878	1.2519083969465647	0.1649175412293853	0.7946026986506747	0.9310344827586207	
1.7104024727741821E12	1.0108695652173914	-6.25	3.652173913043478	3936.9963369963366	128.0	128.0	-6.479118642701941	55.07200361156507	48.59288496886313	492.9910716999855	585.3661126334802	-4.045801526717557	6.702290076335878	1.4961832061068703	0.15442278860569714	0.7946026986506747	0.9310344827586207	
1.710402472793714E12	1.0108695652173914	-6.260869565217391	3.652173913043478	3938.461538461538	128.0	128.0	-6.546768730493633	55.015316011347295	48.46854728085366	492.9937402002502	585.3190172098896	-3.8931297709923665	6.534351145038167	1.099236641221374	0.16941529235382308	0.7871064467766117	0.9415292353823088	
1.7104024728132458E12	1.0	-6.271739130434782	3.5869565217391304	3935.531135531135	128.0	128.0	-6.571001597762299	54.99447286063109	48.423471262868794	493.00412571479393	585.3200990343213	-3.5572519083969465	6.595419847328244	0.9312977099236641	0.17841079460269865	0.775112443778111	0.9250374812593702	
1.7104024728327776E12	1.0217391304347825	-6.315217391304348	3.641304347826087	3936.9963369963366	128.0	128.0	-6.580665896018255	54.982428548625535	48.40176265260728	492.98227286127485	585.3190172098896	-3.4045801526717554	6.259541984732824	0.7175572519083969	0.17091454272863568	0.7781109445277361	0.9295352323838081	
1.7104024728523093E12	1.0217391304347825	-6.33695652173913	3.6630434782608696	3936.9963369963366	128.0	128.0	-6.573525854769452	54.9747836559753	48.40125780120585	493.0095348369521	585.3154111284508	-3.2671755725190836	6.198473282442748	0.5954198473282443	0.17841079460269865	0.7856071964017991	0.9475262368815592	
1.710402472871841E12	1.0217391304347825	-6.304347826086956	3.793478260869565	3915.0183150183148	128.0	128.0	-6.574319192685985	54.97341334502856	48.39909415234258	493.0259064466842	585.3203153992075	-3.1755725190839694	7.572519083969465	0.7022900763358778	0.16941529235382308	0.7976011994002998	0.9235382308845577	
1.710402472891373E12	1.0326086956521738	-6.25	3.543478260869565	3938.461538461538	128.0	128.0	-6.5790792201851875	54.983943102829826	48.40486388264464	492.99575960585594	585.3278160486002	-3.068702290076336	7.893129770992366	0.6870229007633587	0.1664167916041979	0.7886056971514243	0.9325337331334332	
1.7104024729109048E12	0.9782608695652174	-6.228260869565217	3.793478260869565	3938.461538461538	128.0	128.0	-6.568260975868819	54.98286127839819	48.41460030252937	493.00174570104434	585.3268063457974	-3.450381679389313	7.709923664122137	0.8702290076335878	0.17841079460269865	0.7856071964017991	0.9370314842578711	
1.7104024729304365E12	1.0108695652173914	-6.304347826086956	3.6956521739130435	3936.9963369963366	128.0	128.0	-6.557010001779795	54.97124969616529	48.41423969438549	493.00758755297517	585.3303403056074	-4.030534351145038	7.007633587786259	0.9923664122137404	0.16941529235382308	0.7871064467766117	0.9310344827586207	
1.7104024729499683E12	0.9891304347826086	-6.326086956521739	3.717391304347826	3936.9963369963366	128.0	128.0	-6.562491245566756	54.97153818268039	48.40904693711364	493.01451122933764	585.3275275620852	-5.068702290076335	7.1603053435114505	0.8549618320610687	0.1634182908545727	0.7961019490254873	0.9325337331334332	
1.7104024729695E12	1.0	-6.326086956521739	3.6739130434782608	3934.065934065934	128.0	128.0	-6.573309489883124	54.97074484476386	48.397435354880734	493.0128524318758	585.3399324822345	-3.8167938931297707	7.816793893129771	0.6106870229007634	0.17091454272863568	0.7811094452773613	0.9400299850074962	
1.710402472989032E12	1.0	-6.304347826086956	3.717391304347826	3936.9963369963366	128.0	128.0	-6.5766992064355865	54.96865331752936	48.391954111093774	493.0202809596397	585.340437333636	-3.145038167938931	7.648854961832061	0.48854961832061067	0.1664167916041979	0.7856071964017991	0.9325337331334332	
1.7104024730085637E12	0.967391304347826	-6.315217391304348	3.684782608695652	3936.9963369963366	128.0	128.0	-6.575689503632725	54.96627330377976	48.390583800147034	493.0155930537693	585.3390670226893	-2.7938931297709924	7.6183206106870225	0.549618320610687	0.17841079460269865	0.7781109445277361	0.9325337331334332	
1.7104024730280955E12	0.9565217391304348	-6.304347826086956	3.684782608695652	3915.0183150183148	128.0	128.0	-6.568044610982492	54.95978235718994	48.39173774620745	493.01097726952764	585.3369754954548	-2.8244274809160306	7.862595419847328	0.7480916030534351	0.1649175412293853	0.7841079460269865	0.9205397301349325	
1.7104024730476272E12	0.9891304347826086	-6.293478260869565	3.641304347826087	3939.9267399267396	128.0	128.0	-6.571434327534954	54.96295570885607	48.39152138132112	493.00470268782414	585.3273111971988	-2.610687022900763	7.480916030534351	0.9770992366412213	0.17841079460269865	0.793103448275862	0.9370314842578711	
1.710402473067159E12	0.9782608695652174	-6.271739130434782	3.641304347826087	3938.461538461538	128.0	128.0	-6.56602520537677	54.95769082995544	48.39166562457867	493.00340449850614	585.3313500084103	-2.183206106870229	7.480916030534351	0.7633587786259541	0.15892053973013492	0.7961019490254873	0.9250374812593702	
1.710402473086691E12	1.0	-6.260869565217391	3.717391304347826	3936.9963369963366	128.0	128.0	-6.559606380415723	54.950045937305205	48.39043955688948	493.01775670263254	585.313391722845	-1.6030534351145038	6.99236641221374	0.7175572519083969	0.1664167916041979	0.793103448275862	0.9430284857571214	
1.7104024731062227E12	1.0108695652173914	-6.282608695652174	3.7065217391304346	3936.9963369963366	128.0	128.0	-6.564077921399823	54.9449974232909	48.38091950189108	493.0164585133146	585.329186359547	-2.610687022900763	7.129770992366412	0.8091603053435115	0.17391304347826086	0.7811094452773613	0.9370314842578711	
1.7104024731257544E12	1.0326086956521738	-6.304347826086956	3.6739130434782608	3936.9963369963366	128.0	128.0	-6.566241570263097	54.95336353222889	48.387121961965796	493.02100217592744	585.3217578317831	-3.1908396946564883	7.32824427480916	0.9465648854961831	0.1619190404797601	0.7871064467766117	0.9385307346326837	
1.7104024731452861E12	1.0434782608695652	-6.282608695652174	3.717391304347826	3947.252747252747	128.0	128.0	-6.542946284168516	54.98488068400391	48.4419343998354	493.0226609733893	585.3292584811758	-2.854961832061069	7.267175572519084	0.8091603053435115	0.17841079460269865	0.7856071964017991	0.9295352323838081	
1.7104024731648179E12	0.9891304347826086	-6.315217391304348	3.684782608695652	3939.9267399267396	128.0	128.0	-6.532921377768681	54.968725439158135	48.435804061389454	492.99547111934083	585.3233445076162	-3.0534351145038165	7.251908396946565	0.8702290076335878	0.15892053973013492	0.800599700149925	0.9430284857571214	
1.7104024731843499E12	0.9782608695652174	-6.326086956521739	3.717391304347826	3915.0183150183148	128.0	128.0	-6.516910376180456	54.97990429161838	48.46299391543793	492.98551833456975	585.3161323447385	-3.7251908396946565	6.778625954198473	0.24427480916030533	0.15742128935532235	0.7946026986506747	0.9280359820089955	
1.7104024732038816E12	0.9782608695652174	-6.315217391304348	3.6956521739130435	3939.9267399267396	128.0	128.0	-6.5170546194380075	54.924875488862455	48.40782086942445	493.0262670548281	585.3249311834492	-3.2061068702290076	6.213740458015267	0.5801526717557252	0.1619190404797601	0.7976011994002998	0.9340329835082458	
1.7104024732234133E12	1.0108695652173914	-6.304347826086956	3.7282608695652173	3938.461538461538	128.0	128.0	-6.573309489883124	54.94478105840457	48.37147156852145	493.012780310247	585.3117329253832	-2.8244274809160306	6.183206106870228	0.7175572519083969	0.17991004497751123	0.7871064467766117	0.9385307346326837	
1.710402473242945E12	1.0434782608695652	-6.293478260869565	3.7065217391304346	3938.461538461538	128.0	128.0	-6.576771328064362	54.95220958616848	48.37543825810412	492.9692909680952	585.3063959248539	-2.5343511450381677	5.572519083969466	0.4427480916030534	0.1664167916041979	0.800599700149925	0.9370314842578711	
1.7104024732624768E12	1.0434782608695652	-6.282608695652174	3.6739130434782608	3938.461538461538	128.0	128.0	-6.573453733140676	54.9497574507901	48.37630371764943	492.98941290252367	585.3090644251185	-2.916030534351145	5.694656488549618	0.47328244274809156	0.16941529235382308	0.8020989505247376	0.9235382308845577	
1.7104024732820088E12	1.0326086956521738	-6.260869565217391	3.7065217391304346	3938.461538461538	128.0	128.0	-6.591123532190744	54.9768751832098	48.385751651019056	493.02814221717625	585.332720319357	-3.0839694656488548	6.0	0.4580152671755725	0.17241379310344826	0.7901049475262368	0.9490254872563718	
1.7104024733015405E12	1.0	-6.293478260869565	3.7391304347826084	3936.9963369963366	128.0	128.0	-6.492461144025462	54.944204085374366	48.451742941348904	493.0432156375904	585.485834537248	-3.618320610687023	6.259541984732824	0.4580152671755725	0.1649175412293853	0.7871064467766117	0.9340329835082458	
1.7104024733210723E12	1.0	-6.33695652173913	3.7282608695652173	3936.9963369963366	128.0	128.0	-6.422719528999273	56.091298591053324	49.66857906205405	493.0435041241055	584.7988760231586	-4.015267175572519	6.183206106870228	0.2900763358778626	0.17691154422788605	0.7871064467766117	0.9460269865067465	
1.710402473340604E12	1.0	-6.33695652173913	3.7282608695652173	3915.0183150183148	128.0	128.0	-6.769408198524499	55.34621004417063	48.57680184564613	493.0313155688424	584.8599630427317	-3.7404580152671754	5.877862595419847	0.33587786259541985	0.17991004497751123	0.7901049475262368	0.9310344827586207	
1.7104024733601357E12	1.0326086956521738	-6.293478260869565	3.6739130434782608	3938.461538461538	128.0	128.0	-6.679111919297209	55.052314406909275	48.37320248761207	493.02302158153316	585.2311730660407	-2.687022900763359	6.152671755725191	0.48854961832061067	0.1664167916041979	0.7886056971514243	0.9370314842578711	
1.7104024733796675E12	0.9782608695652174	-6.260869565217391	3.652173913043478	3938.461538461538	128.0	128.0	-6.569991894959438	55.04762650103885	48.47763460607941	493.0500671923241	585.3612804843522	-3.8167938931297707	4.244274809160305	0.4580152671755725	0.1829085457271364	0.7856071964017991	0.9220389805097451	
1.7104024733991995E12	0.9782608695652174	-6.293478260869565	3.902173913043478	3936.9963369963366	128.0	128.0	-6.560111231817154	55.03659189183615	48.476480660019	493.01595366191316	585.3686368904873	-3.3740458015267176	6.7328244274809155	0.24427480916030533	0.1634182908545727	0.793103448275862	0.9370314842578711	
1.7104024734187312E12	1.0543478260869565	-6.3478260869565215	3.5217391304347827	3938.461538461538	128.0	128.0	-6.537681405267883	55.04560709543313	48.507925690165244	493.0821613171293	585.3969085689674	-4.870229007633587	7.099236641221374	0.6717557251908397	0.17391304347826086	0.8035982008995503	0.9250374812593702	
1.710402473438263E12	1.0108695652173914	-6.25	3.7717391304347827	3935.531135531135	128.0	128.0	-6.525637093262326	55.04856408221294	48.522926988950616	493.07192004584317	585.3972691771113	-2.564885496183206	6.641221374045801	1.0076335877862594	0.19040479760119938	0.8035982008995503	0.9325337331334332	
1.7104024734577947E12	1.0	-6.239130434782608	3.641304347826087	3936.9963369963366	128.0	128.0	-6.508688510500016	55.05000651478846	48.54131800428844	493.06521273436704	585.4354936403626	-1.83206106870229	6.900763358778626	0.9770992366412213	0.17091454272863568	0.7961019490254873	0.9220389805097451	
1.7104024734773264E12	0.9891304347826086	-6.293478260869565	3.7065217391304346	3938.461538461538	128.0	128.0	-6.4933987251995475	55.06926298967159	48.575864264472045	493.05684662542905	585.4438597493005	-4.1679389312977095	7.221374045801526	0.916030534351145	0.16941529235382308	0.7871064467766117	0.9385307346326837	
1.7104024734968584E12	0.9891304347826086	-6.304347826086956	3.717391304347826	3913.5531135531132	128.0	128.0	-6.464766438575559	55.074527868572225	48.60976142999667	493.0398980426667	585.4648471432743	-5.221374045801526	6.2748091603053435	1.1603053435114503	0.17241379310344826	0.7841079460269865	0.9460269865067465	
1.7104024735163901E12	0.9891304347826086	-6.369565217391304	3.684782608695652	3938.461538461538	128.0	128.0	-6.4210607315374295	55.115637196974426	48.694576465436995	493.0054960257407	585.5275929603092	-5.66412213740458	6.2748091603053435	1.099236641221374	0.17841079460269865	0.7811094452773613	0.9325337331334332	
1.7104024735359219E12	1.0108695652173914	-6.358695652173913	3.7065217391304346	3938.461538461538	128.0	128.0	-6.388029025558118	55.14109613193228	48.75306710637416	493.0516538681572	585.5561531253044	-4.961832061068702	6.519083969465648	0.9618320610687022	0.1619190404797601	0.7946026986506747	0.9205397301349325	
1.7104024735554536E12	1.0	-6.304347826086956	3.7065217391304346	3938.461538461538	128.0	128.0	-6.320523181023978	55.1773733112065	48.85685013018252	493.0229494599044	585.5770683976493	-2.9618320610687023	6.5038167938931295	0.6106870229007634	0.15742128935532235	0.7976011994002998	0.9385307346326837	
1.7104024735749854E12	0.9782608695652174	-6.304347826086956	3.6739130434782608	3939.9267399267396	128.0	128.0	-6.333649317461171	55.198577070066584	48.86492775260541	493.0603084636103	585.5388439343982	-4.183206106870228	7.0534351145038165	0.366412213740458	0.1619190404797601	0.8050974512743628	0.9415292353823088	
1.7104024735945173E12	0.967391304347826	-6.271739130434782	3.6630434782608696	3942.8571428571427	128.0	128.0	-6.437288098011983	55.15530409280111	48.71801599478913	493.05684662542905	585.4322481670675	-3.6488549618320607	6.519083969465648	0.7633587786259541	0.15742128935532235	0.7901049475262368	0.9310344827586207	
1.710402473614049E12	0.9782608695652174	-6.293478260869565	3.684782608695652	3938.461538461538	128.0	128.0	-6.513376416370442	55.1085692773544	48.59519286098396	493.06773699137415	585.3783011887433	-3.8931297709923665	5.938931297709924	0.732824427480916	0.14692653673163417	0.7901049475262368	0.9235382308845577	
1.7104024736335808E12	1.0217391304347825	-6.271739130434782	3.6630434782608696	3938.461538461538	128.0	128.0	-6.549797838902216	55.06911874641404	48.519320907511826	493.06629455879863	585.3446925097338	-3.1755725190839694	5.770992366412213	0.7480916030534351	0.15892053973013492	0.7856071964017991	0.9295352323838081	
1.7104024736531125E12	1.0326086956521738	-6.304347826086956	3.7065217391304346	3913.5531135531132	128.0	128.0	-6.566457935149424	55.04164040585046	48.475182470701036	493.06917942394966	585.332720319357	-3.6030534351145036	6.580152671755725	0.564885496183206	0.17241379310344826	0.7841079460269865	0.9280359820089955	
1.7104024736726443E12	1.0326086956521738	-6.304347826086956	3.6956521739130435	3938.461538461538	128.0	128.0	-6.566457935149424	55.02599001240611	48.45953207725669	493.065861829026	585.3299796974635	-3.801526717557252	6.534351145038167	0.6717557251908397	0.16941529235382308	0.7901049475262368	0.9310344827586207	
1.7104024736921763E12	1.0434782608695652	-6.326086956521739	3.641304347826087	3938.461538461538	128.0	128.0	-6.575689503632725	55.03341854017002	48.457729036537295	493.05886603103477	585.3360379142807	-4.2748091603053435	5.786259541984733	0.5954198473282443	0.15592203898050974	0.800599700149925	0.9295352323838081	
1.710402473711708E12	1.0217391304347825	-6.326086956521739	3.793478260869565	3935.531135531135	128.0	128.0	-6.577276179465793	55.02880275592837	48.45152657646258	493.05013931395285	585.3338021437886	-3.480916030534351	5.709923664122138	0.48854961832061067	0.15442278860569714	0.7901049475262368	0.9310344827586207	
1.7104024737312397E12	1.0	-6.315217391304348	3.510869565217391	3938.461538461538	128.0	128.0	-6.563212461854514	55.01863360627098	48.45542114441647	493.05850542289085	585.3294748460621	-4.0	6.442748091603053	0.6259541984732824	0.18440779610194902	0.7871064467766117	0.9385307346326837	
1.7104024737507715E12	1.0217391304347825	-6.293478260869565	3.75	3936.9963369963366	128.0	128.0	-6.559966988559602	55.0158929843775	48.4559259958179	493.03881621823507	585.3310615218952	-2.8854961832061066	6.3206106870229	0.0916030534351145	0.1619190404797601	0.7796101949025487	0.9235382308845577	
1.7104024737703032E12	1.0108695652173914	-6.293478260869565	3.717391304347826	3910.62271062271	128.0	128.0	-6.576194355034156	55.02635062054999	48.45015626551584	493.04393685387817	585.3371197387123	-3.312977099236641	5.572519083969466	0.38167938931297707	0.1619190404797601	0.7796101949025487	0.9235382308845577	
1.7104024737898352E12	1.0108695652173914	-6.33695652173913	3.684782608695652	3936.9963369963366	128.0	128.0	-6.565448232346563	55.01459479505954	48.449146562712976	493.0450907999386	585.3355330628792	-4.778625954198473	5.908396946564885	0.5038167938931297	0.17691154422788605	0.7796101949025487	0.9415292353823088	
1.710402473809367E12	1.0326086956521738	-6.33695652173913	3.6739130434782608	3913.5531135531132	128.0	128.0	-6.5722276654514875	55.00868082149992	48.43645315604844	493.0122754588456	585.3386342929166	-3.8931297709923665	6.229007633587786	0.24427480916030533	0.17241379310344826	0.7841079460269865	0.9310344827586207	
1.7104024738288987E12	1.0434782608695652	-6.326086956521739	3.6956521739130435	3938.461538461538	128.0	128.0	-6.572660395224142	55.003488064228065	48.430827669003925	493.05915451754987	585.3351724547354	-2.687022900763359	6.99236641221374	0.549618320610687	0.1829085457271364	0.7961019490254873	0.9295352323838081	
1.7104024738484304E12	1.0	-6.33695652173913	3.7065217391304346	3938.461538461538	128.0	128.0	-6.571867057307609	54.99274194154047	48.420874884232866	493.03593135308404	585.33077303538	-2.916030534351145	7.175572519083969	0.7022900763358778	0.1664167916041979	0.7856071964017991	0.9325337331334332	
1.7104024738679622E12	1.0108695652173914	-6.315217391304348	3.6956521739130435	3936.9963369963366	128.0	128.0	-6.572444030337815	54.9929583064268	48.42051427608899	493.06622243716987	585.3268784674261	-3.3587786259541983	6.885496183206107	1.2061068702290076	0.1664167916041979	0.7811094452773613	0.9370314842578711	
1.7104024738874941E12	1.0217391304347825	-6.315217391304348	3.6739130434782608	3938.461538461538	128.0	128.0	-6.579367706700291	54.99454498225987	48.41517727555958	493.06990064023745	585.3200990343213	-2.5038167938931295	7.007633587786259	0.9618320610687022	0.1829085457271364	0.7961019490254873	0.9430284857571214	
1.710402473907026E12	1.0108695652173914	-6.315217391304348	3.652173913043478	3936.9963369963366	128.0	128.0	-6.5766992064355865	54.988919495215356	48.41222028877977	493.05792844986064	585.3242820887903	-3.465648854961832	6.33587786259542	1.0687022900763359	0.1829085457271364	0.7781109445277361	0.9220389805097451	
1.7104024739265576E12	1.0434782608695652	-6.315217391304348	3.7282608695652173	3936.9963369963366	128.0	128.0	-6.574102827799658	54.98473644074636	48.410633612946704	493.046244745999	585.3154832500796	-3.5877862595419847	6.885496183206107	1.282442748091603	0.17391304347826086	0.793103448275862	0.9250374812593702	
1.7104024739460894E12	1.0434782608695652	-6.3478260869565215	3.75	3938.461538461538	128.0	128.0	-6.575112530602519	54.98538553540534	48.410273004802825	493.06449151807925	585.3125983849286	-3.282442748091603	7.587786259541985	1.0534351145038168	0.1664167916041979	0.7856071964017991	0.9370314842578711	
1.710402473965621E12	1.0434782608695652	-6.358695652173913	3.7065217391304346	3913.5531135531132	128.0	128.0	-6.582108328593771	54.98473644074636	48.40262811215259	493.03593135308404	585.3225511696996	-4.7328244274809155	7.557251908396946	0.9465648854961831	0.17841079460269865	0.7856071964017991	0.9370314842578711	
1.710402473985153E12	1.0217391304347825	-6.33695652173913	3.75	3938.461538461538	128.0	128.0	-6.591484140334623	54.99620377972171	48.40471963938709	493.0724970188734	585.3138965742465	-4.351145038167939	8.076335877862595	0.9770992366412213	0.17241379310344826	0.7871064467766117	0.9385307346326837	
1.7104024740046848E12	1.0	-6.326086956521739	3.5978260869565215	3939.9267399267396	128.0	128.0	-6.58246893673765	54.9792551969594	48.39678626022175	493.07228065398704	585.3339463870462	-4.625954198473282	7.49618320610687	1.0229007633587786	0.1619190404797601	0.7901049475262368	0.9310344827586207	
1.7104024740242166E12	1.0543478260869565	-6.315217391304348	3.5869565217391304	3936.9963369963366	128.0	128.0	-6.581170747419685	54.98913586010168	48.407965112682	493.06304908550374	585.3186566017457	-2.4732824427480917	6.961832061068702	1.297709923664122	0.1664167916041979	0.7856071964017991	0.9325337331334332	
1.7104024740437483E12	1.0326086956521738	-6.271739130434782	3.5869565217391304	3939.9267399267396	128.0	128.0	-6.579800436472945	54.9724036422257	48.392603205752756	493.05742359845925	585.3303403056074	-2.198473282442748	7.572519083969465	1.450381679389313	0.17691154422788605	0.7946026986506747	0.9280359820089955	
1.71040247406328E12	1.0434782608695652	-6.282608695652174	3.652173913043478	3938.461538461538	128.0	128.0	-6.5735979763982275	54.97074484476386	48.39714686836563	493.0641309099354	585.3164929528824	-2.717557251908397	7.099236641221374	1.450381679389313	0.17241379310344826	0.7871064467766117	0.9310344827586207	
1.7104024740828118E12	1.0108695652173914	-6.304347826086956	3.717391304347826	3910.62271062271	128.0	128.0	-6.564799137687581	54.969086047302014	48.404286909614434	493.0601642203527	585.3233445076162	-4.458015267175572	7.32824427480916	1.3587786259541985	0.17391304347826086	0.800599700149925	0.9325337331334332	
1.7104024741023438E12	1.0108695652173914	-6.33695652173913	3.6956521739130435	3938.461538461538	128.0	128.0	-6.5489323793569065	54.977957007641436	48.42902462828453	493.07675219497116	585.3198105478061	-5.297709923664122	7.099236641221374	1.465648854961832	0.17091454272863568	0.7886056971514243	0.9220389805097451	
1.7104024741218755E12	0.9891304347826086	-6.33695652173913	3.6956521739130435	3912.0879120879117	128.0	128.0	-6.526502552807636	54.99274194154047	48.46623938873284	493.06716001834394	585.3165650745112	-4.33587786259542	7.297709923664121	0.8702290076335878	0.17991004497751123	0.7841079460269865	0.9280359820089955	
1.7104024741414072E12	0.9891304347826086	-6.315217391304348	3.6304347826086953	3938.461538461538	128.0	128.0	-6.543234770683619	54.950406545449084	48.407171774765466	493.0644193964505	585.3288978730319	-3.4351145038167936	7.083969465648854	1.099236641221374	0.16941529235382308	0.7766116941529235	0.9340329835082458	
1.710402474160939E12	0.9782608695652174	-6.293478260869565	3.619565217391304	3938.461538461538	128.0	128.0	-6.568260975868819	54.94521378817723	48.37695281230841	493.0524472060737	585.3121656551559	-2.900763358778626	7.083969465648854	0.8396946564885496	0.17841079460269865	0.7886056971514243	0.9370314842578711	
1.7104024741804707E12	0.9891304347826086	-6.315217391304348	3.652173913043478	3936.9963369963366	128.0	128.0	-6.577059814579465	54.94225680139742	48.365196986817956	493.05381751702043	585.3112280739819	-3.068702290076336	6.671755725190839	0.9465648854961831	0.17241379310344826	0.7691154422788605	0.9415292353823088	
1.7104024742000027E12	0.9891304347826086	-6.293478260869565	3.6304347826086953	3938.461538461538	128.0	128.0	-6.579656193215394	54.94326650420028	48.36361031098489	493.0542502467931	585.313391722845	-3.0839694656488548	6.229007633587786	1.2366412213740459	0.17391304347826086	0.7856071964017991	0.9295352323838081	
1.7104024742195344E12	0.9891304347826086	-6.293478260869565	3.6304347826086953	3938.461538461538	128.0	128.0	-6.564727016058805	54.93713616575434	48.372409149695535	493.0760309786834	585.3284651432592	-3.0381679389312977	6.213740458015267	1.114503816793893	0.17091454272863568	0.7781109445277361	0.9190404797601199	
1.7104024742390662E12	1.0108695652173914	-6.293478260869565	3.652173913043478	3936.9963369963366	128.0	128.0	-6.478469548042959	54.91427360943241	48.435804061389454	493.06636668042745	585.4506391824054	-3.7557251908396947	6.137404580152672	0.9007633587786259	0.17841079460269865	0.7856071964017991	0.9370314842578711	
1.710402474258598E12	1.0108695652173914	-6.304347826086956	3.641304347826087	3938.461538461538	128.0	128.0	-6.309704936707608	55.44213181044243	49.13242687373482	493.0520865979298	585.2221578624437	-3.633587786259542	6.702290076335878	0.7175572519083969	0.16941529235382308	0.8020989505247376	0.9280359820089955	
1.7104024742781296E12	1.0	-6.315217391304348	3.6304347826086953	3915.0183150183148	128.0	128.0	-6.723250356107993	55.31930867663726	48.596058320529266	493.0522308411874	584.8488563119002	-2.015267175572519	6.931297709923664	1.114503816793893	0.14992503748125938	0.8020989505247376	0.9385307346326837	
1.7104024742976616E12	1.0434782608695652	-6.282608695652174	3.619565217391304	3938.461538461538	128.0	128.0	-6.6603602958155035	55.01149356502218	48.35113326920668	493.0670157750864	585.19410254885	-1.7862595419847327	6.99236641221374	1.0534351145038168	0.17691154422788605	0.7796101949025487	0.9235382308845577	
1.7104024743171934E12	0.9565217391304348	-6.260869565217391	3.543478260869565	3938.461538461538	128.0	128.0	-6.546336000720978	54.99605953646416	48.44972353574318	493.0543223684219	585.329835454206	-1.4809160305343512	7.3893129770992365	0.7786259541984732	0.17391304347826086	0.800599700149925	0.9325337331334332	
1.710402474336725E12	1.0108695652173914	-6.293478260869565	3.8478260869565215	3936.9963369963366	128.0	128.0	-6.536311094321143	54.96742724984017	48.43111615551903	493.03823924520486	585.3545010512473	-5.068702290076335	6.641221374045801	0.8854961832061068	0.15742128935532235	0.7871064467766117	0.9385307346326837	
1.7104024743562568E12	0.9891304347826086	-6.358695652173913	3.5	3938.461538461538	128.0	128.0	-6.516405524779025	54.97305273688468	48.45664721210566	493.0273488792597	585.371016904237	-2.33587786259542	8.458015267175572	0.9618320610687022	0.17991004497751123	0.7841079460269865	0.9415292353823088	
1.7104024743757886E12	1.0543478260869565	-6.239130434782608	3.7391304347826084	3936.9963369963366	128.0	128.0	-6.493038117055669	54.97406243968754	48.481024322631875	493.0369410558869	585.3741181342743	-1.465648854961832	6.870229007633587	1.5572519083969465	0.1634182908545727	0.7961019490254873	0.9295352323838081	
1.7104024743953206E12	1.0326086956521738	-6.271739130434782	3.5543478260869565	3936.9963369963366	128.0	128.0	-6.492244779139135	54.9726921287408	48.48044734960167	493.0248246222526	585.3819072701821	-3.5877862595419847	7.801526717557252	0.9465648854961831	0.18440779610194902	0.7766116941529235	0.9415292353823088	
1.7104024744148523E12	0.9891304347826086	-6.315217391304348	3.6739130434782608	3938.461538461538	128.0	128.0	-6.462386424825958	54.97384607480122	48.511459649975265	493.0161700267995	585.4045534616176	-3.7404580152671754	6.641221374045801	1.129770992366412	0.17691154422788605	0.7946026986506747	0.9280359820089955	
1.710402474434384E12	0.9891304347826086	-6.33695652173913	3.641304347826087	3915.0183150183148	128.0	128.0	-6.437648706155862	54.99303042805558	48.55538172189972	493.0316040553575	585.4305893696057	-3.5725190839694654	5.984732824427481	1.3435114503816794	0.17241379310344826	0.7841079460269865	0.9280359820089955	
1.7104024744539158E12	0.9891304347826086	-6.3478260869565215	3.6630434782608696	3939.9267399267396	128.0	128.0	-6.381105349195642	55.012863875968925	48.63175852677328	493.0160979051707	585.4879260644825	-2.427480916030534	5.908396946564885	1.099236641221374	0.17691154422788605	0.7901049475262368	0.9340329835082458	
1.7104024744734475E12	0.9891304347826086	-6.315217391304348	3.652173913043478	3938.461538461538	128.0	128.0	-6.340284507308544	55.0245475798306	48.68426307252206	493.02064156778357	585.5280256900818	-1.7862595419847327	6.152671755725191	0.9007633587786259	0.1664167916041979	0.7886056971514243	0.9550224887556221	
1.7104024744929795E12	1.0108695652173914	-6.25	3.6304347826086953	3934.065934065934	128.0	128.0	-6.270182284138476	55.04892469035682	48.77874240621834	493.02518523039646	585.5609852744324	-2.198473282442748	6.076335877862595	0.8702290076335878	0.17841079460269865	0.7811094452773613	0.9190404797601199	
1.7104024745125112E12	0.9891304347826086	-6.239130434782608	3.6630434782608696	3938.461538461538	128.0	128.0	-6.259868891223538	55.074383625314674	48.814514734091134	493.02258885176053	585.5301893389451	-2.396946564885496	6.290076335877862	0.9007633587786259	0.17391304347826086	0.793103448275862	0.9475262368815592	
1.710402474532043E12	1.0108695652173914	-6.228260869565217	3.6304347826086953	3938.461538461538	128.0	128.0	-6.331485668597898	55.06688297592199	48.73539730732409	493.02331006804826	585.4650635081606	-3.3587786259541983	6.061068702290076	1.0534351145038168	0.17091454272863568	0.7856071964017991	0.9475262368815592	
1.7104024745515747E12	0.9891304347826086	-6.25	3.6630434782608696	3935.531135531135	128.0	128.0	-6.439379625246481	54.98653948146576	48.54715985621928	493.02129066244254	585.3612804843522	-3.83206106870229	5.923664122137405	0.9618320610687022	0.17391304347826086	0.7886056971514243	0.9370314842578711	
1.7104024745711064E12	1.0108695652173914	-6.293478260869565	3.608695652173913	3936.9963369963366	128.0	128.0	-6.5053709155763295	54.968220587756704	48.462849672180376	493.0116984858154	585.3286815081456	-3.7404580152671754	6.3206106870229	0.8854961832061068	0.16941529235382308	0.7901049475262368	0.9280359820089955	
1.7104024745906384E12	1.0217391304347825	-6.282608695652174	3.684782608695652	3915.0183150183148	128.0	128.0	-6.51907402504373	54.93764101715577	48.41856699211204	493.0272046360022	585.3210366154954	-3.8931297709923665	5.984732824427481	0.6717557251908397	0.1649175412293853	0.8020989505247376	0.9310344827586207	
1.7104024746101702E12	1.0217391304347825	-6.326086956521739	3.6630434782608696	3938.461538461538	128.0	128.0	-6.5276564988680486	54.923000326514284	48.395343827646236	493.0160979051707	585.3283930216304	-4.717557251908397	6.152671755725191	0.4427480916030534	0.17841079460269865	0.793103448275862	0.9400299850074962	
1.710402474629702E12	1.0217391304347825	-6.315217391304348	3.5760869565217392	3936.9963369963366	128.0	128.0	-6.5239061741717075	54.918384542272634	48.39447836810093	493.01689124308723	585.334956089849	-3.2061068702290076	6.091603053435114	0.41221374045801523	0.17091454272863568	0.7856071964017991	0.9295352323838081	
1.7104024746492336E12	1.0108695652173914	-6.293478260869565	3.6739130434782608	3935.531135531135	128.0	128.0	-6.519146146672505	54.91809605575753	48.398949909085026	493.03023374441074	585.3296912109485	-3.129770992366412	8.030534351145038	1.0381679389312977	0.1634182908545727	0.7781109445277361	0.9325337331334332	
1.7104024746687654E12	1.0217391304347825	-6.260869565217391	3.391304347826087	3936.9963369963366	128.0	128.0	-6.525853458148654	54.924370637461024	48.39851717931237	493.0398980426667	585.348803442574	-4.106870229007633	7.938931297709924	0.549618320610687	0.17841079460269865	0.8035982008995503	0.9475262368815592	
1.710402474688297E12	0.967391304347826	-6.206521739130435	3.7065217391304346	3938.461538461538	128.0	128.0	-6.5081115374698095	54.908936608903005	48.4008250714332	493.01465547259517	585.3343791168188	-5.648854961832061	7.297709923664121	0.6717557251908397	0.17391304347826086	0.793103448275862	0.9295352323838081	
1.710402474707829E12	0.9565217391304348	-6.293478260869565	3.6630434782608696	3938.461538461538	128.0	128.0	-6.520660700876797	54.92285608325673	48.40219538237994	493.0033323768774	585.3163487096249	-7.0534351145038165	8.015267175572518	0.7633587786259541	0.17391304347826086	0.7886056971514243	0.9400299850074962	
1.7104024747273608E12	0.9891304347826086	-6.33695652173913	3.6630434782608696	3936.9963369963366	128.0	128.0	-6.518136443869644	54.921125164166114	48.40298872029647	493.0349216502812	585.3226232913283	-5.66412213740458	7.816793893129771	0.7175572519083969	0.1619190404797601	0.7871064467766117	0.9415292353823088	
1.7104024747468926E12	1.0326086956521738	-6.358695652173913	3.608695652173913	3912.0879120879117	128.0	128.0	-6.519939484589039	54.92689489446818	48.40695540987914	493.0013850929004	585.334667603334	-3.49618320610687	7.6183206106870225	0.6870229007633587	0.17241379310344826	0.7946026986506747	0.9235382308845577	
1.7104024747664243E12	1.0	-6.326086956521739	3.652173913043478	3939.9267399267396	128.0	128.0	-6.520011606217815	54.92667852958185	48.406666923364035	493.0361477179704	585.3392112659468	-2.33587786259542	7.480916030534351	0.41221374045801523	0.1634182908545727	0.775112443778111	0.9325337331334332	
1.710402474785956E12	0.9782608695652174	-6.304347826086956	3.6304347826086953	3938.461538461538	128.0	128.0	-6.5311183370492865	54.936198584580254	48.40508024753097	493.0337677042208	585.3400046038633	-2.045801526717557	7.221374045801526	0.38167938931297707	0.1634182908545727	0.7961019490254873	0.9430284857571214	
1.710402474805488E12	0.9456521739130435	-6.33695652173913	3.6630434782608696	3934.065934065934	128.0	128.0	-6.531046215420511	54.929130664960226	48.398084449539716	492.986744402259	585.3428173473856	-2.5038167938931295	6.793893129770992	0.2595419847328244	0.17691154422788605	0.7901049475262368	0.9385307346326837	
1.7104024748250198E12	0.9782608695652174	-6.315217391304348	3.619565217391304	3938.461538461538	128.0	128.0	-6.5225358632249675	54.91809605575753	48.395560192532564	493.0041978364227	585.3260851295096	-2.6259541984732824	6.030534351145038	0.47328244274809156	0.1829085457271364	0.7961019490254873	0.9325337331334332	
1.7104024748445515E12	0.9891304347826086	-6.315217391304348	3.5978260869565215	3936.9963369963366	128.0	128.0	-6.5208049441343485	54.91088389287995	48.390078948745604	493.00701057994496	585.33077303538	-2.015267175572519	5.419847328244274	0.3511450381679389	0.17991004497751123	0.7871064467766117	0.9340329835082458	
1.7104024748640833E12	1.0108695652173914	-6.304347826086956	3.641304347826087	3936.9963369963366	128.0	128.0	-6.518785538528626	54.91124450102383	48.392458962495205	493.0173960944887	585.3281766567442	-1.7251908396946565	5.450381679389313	0.3969465648854962	0.17691154422788605	0.8050974512743628	0.9340329835082458	
1.710402474883615E12	1.0434782608695652	-6.282608695652174	3.652173913043478	3938.461538461538	128.0	128.0	-6.52368980928538	54.91773544761365	48.39404563832827	493.0137178914211	585.3241378455327	-1.7404580152671756	5.572519083969466	0.2900763358778626	0.17241379310344826	0.7901049475262368	0.9385307346326837	
1.710402474903147E12	1.0543478260869565	-6.293478260869565	3.6630434782608696	3915.0183150183148	128.0	128.0	-6.532705012882354	54.92667852958185	48.393973516699496	492.9941008083941	585.3276718053427	-2.3053435114503817	5.236641221374046	0.2748091603053435	0.17091454272863568	0.775112443778111	0.9295352323838081	
1.7104024749226787E12	1.0543478260869565	-6.326086956521739	3.717391304347826	3938.461538461538	128.0	128.0	-6.531046215420511	54.91420148780364	48.38315527238313	492.9946777814243	585.3219020750406	-2.687022900763359	5.6183206106870225	0.47328244274809156	0.17841079460269865	0.7811094452773613	0.9145427286356821	
1.7104024749422104E12	1.076086956521739	-6.315217391304348	3.6739130434782608	3935.531135531135	128.0	128.0	-6.537465040381556	54.929851881247984	48.39238684086643	492.9940286867653	585.3231281427298	-3.0381679389312977	5.9541984732824424	0.22900763358778625	0.14842578710644677	0.7856071964017991	0.9430284857571214	
1.7104024749617422E12	1.0434782608695652	-6.326086956521739	3.684782608695652	3934.065934065934	128.0	128.0	-6.51770371409699	54.9539405052591	48.43623679116211	493.008597255778	585.3130311147012	-2.946564885496183	6.33587786259542	0.2900763358778626	0.17691154422788605	0.7841079460269865	0.9235382308845577	
1.710402474981274E12	1.0326086956521738	-6.33695652173913	3.6630434782608696	3936.9963369963366	128.0	128.0	-6.502269685538971	54.94391559885926	48.44164591332029	493.0346331637661	585.3081989655732	-2.778625954198473	6.259541984732824	0.366412213740458	0.17091454272863568	0.7811094452773613	0.9325337331334332	
1.710402475000806E12	1.0434782608695652	-6.326086956521739	3.6739130434782608	3936.9963369963366	128.0	128.0	-6.497798144554871	54.93381857083065	48.43602042627578	493.0228052166469	585.3127426281861	-3.2519083969465647	6.366412213740458	0.5190839694656488	0.1664167916041979	0.7856071964017991	0.9400299850074962	
1.7104024750203376E12	1.0434782608695652	-6.326086956521739	3.6739130434782608	3936.9963369963366	128.0	128.0	-6.500322401562024	54.9035996083736	48.40327720681157	493.0181894324052	585.3162044663674	-3.633587786259542	6.702290076335878	0.48854961832061067	0.17691154422788605	0.7796101949025487	0.9235382308845577	
1.7104024750398694E12	1.0543478260869565	-6.315217391304348	3.6630434782608696	3938.461538461538	128.0	128.0	-6.563861556513496	54.914057244546086	48.35019568803259	493.0205694461548	585.3115886821257	-3.9083969465648853	6.3969465648854955	0.732824427480916	0.16941529235382308	0.7976011994002998	0.9415292353823088	
1.7104024750594011E12	1.0326086956521738	-6.326086956521739	3.6630434782608696	3915.0183150183148	128.0	128.0	-6.554485744772642	54.91023479822097	48.35574905344833	493.0309549606985	585.3069728978841	-4.33587786259542	7.068702290076335	0.8549618320610687	0.1829085457271364	0.7856071964017991	0.9295352323838081	
1.7104024750789329E12	1.0543478260869565	-6.326086956521739	3.6739130434782608	3938.461538461538	128.0	128.0	-6.556649393635916	54.91485058246262	48.358201188826705	493.0393210696365	585.3040159111042	-4.015267175572519	7.114503816793893	1.1603053435114503	0.15442278860569714	0.7976011994002998	0.9280359820089955	
1.7104024750984648E12	1.0108695652173914	-6.33695652173913	3.684782608695652	3936.9963369963366	128.0	128.0	-6.570929476133523	54.92963551636166	48.358706040228135	493.0310270823273	585.3162044663674	-3.312977099236641	6.961832061068702	1.0687022900763359	0.1634182908545727	0.793103448275862	0.9325337331334332	
1.7104024751179966E12	1.0	-6.3478260869565215	3.684782608695652	3932.6007326007325	128.0	128.0	-6.382475660142382	54.99793469881234	48.615459038669954	493.02965677138053	585.4740065901287	-2.9923664122137406	6.702290076335878	1.0229007633587786	0.15742128935532235	0.7721139430284857	0.9310344827586207	
1.7104024751375283E12	0.9782608695652174	-6.304347826086956	3.641304347826087	3938.461538461538	128.0	128.0	-6.353050035601859	55.98513555349536	49.6320855178935	493.0529520574751	584.7659164388081	-3.2061068702290076	7.083969465648854	0.916030534351145	0.17091454272863568	0.775112443778111	0.9325337331334332	
1.71040247515706E12	1.0	-6.293478260869565	3.684782608695652	3936.9963369963366	128.0	128.0	-6.709547246640593	55.3501767337533	48.640629487112705	493.0390325831214	584.7815668322525	-3.2519083969465647	7.908396946564885	1.099236641221374	0.1634182908545727	0.800599700149925	0.9295352323838081	
1.7104024751765918E12	1.0217391304347825	-6.282608695652174	3.5217391304347827	3936.9963369963366	128.0	128.0	-6.577276179465793	55.02757668823918	48.45030050877339	493.02431977085115	585.3083432088308	-3.877862595419847	6.519083969465648	1.2213740458015268	0.17241379310344826	0.7796101949025487	0.9340329835082458	
1.7104024751961238E12	0.967391304347826	-6.271739130434782	3.7391304347826084	3938.461538461538	128.0	128.0	-6.536671702465022	55.009834767560335	48.473163065095314	493.0228052166469	585.348803442574	-2.854961832061069	7.816793893129771	0.9923664122137404	0.17391304347826086	0.7961019490254873	0.9430284857571214	
1.7104024752156555E12	0.9891304347826086	-6.33695652173913	3.7391304347826084	3913.5531135531132	128.0	128.0	-6.519506754816384	55.00103592884969	48.481529174033305	493.01270818861826	585.3756326884786	-5.2824427480916025	7.786259541984733	1.1450381679389312	0.1619190404797601	0.8095952023988006	0.9415292353823088	
1.7104024752351873E12	1.0108695652173914	-6.3478260869565215	3.5652173913043477	3938.461538461538	128.0	128.0	-6.502125442281419	55.00392079400072	48.5017953517193	492.9982838628631	585.3958267445358	-2.2900763358778624	7.801526717557252	1.1755725190839694	0.17091454272863568	0.7886056971514243	0.9250374812593702	
1.710402475254719E12	1.0434782608695652	-6.260869565217391	3.6739130434782608	3938.461538461538	128.0	128.0	-6.477171358724995	54.998151063698664	48.52097970497367	493.01862216217785	585.4042649751026	-0.6870229007633587	7.236641221374046	1.5877862595419847	0.16941529235382308	0.7841079460269865	0.952023988005997	
1.7104024752742507E12	1.0217391304347825	-6.271739130434782	3.5760869565217392	3932.6007326007325	128.0	128.0	-6.47262769611212	55.011493565022185	48.538865868910065	493.00484693108166	585.4274881395684	-3.114503816793893	7.7251908396946565	1.450381679389313	0.1664167916041979	0.7781109445277361	0.9400299850074962	
1.7104024752937825E12	0.9891304347826086	-6.315217391304348	3.6956521739130435	3939.9267399267396	128.0	128.0	-6.454380924031845	55.019210579301195	48.56482965526935	493.02460825736625	585.4482591686558	-4.2748091603053435	7.450381679389313	0.9770992366412213	0.17391304347826086	0.7856071964017991	0.9325337331334332	
1.7104024753133145E12	0.9782608695652174	-6.358695652173913	3.717391304347826	3938.461538461538	128.0	128.0	-6.417671014984967	55.0427222302821	48.625051215297134	493.02641129808563	585.490666686376	-5.114503816793893	7.251908396946565	1.5877862595419847	0.17991004497751123	0.7871064467766117	0.9385307346326837	
1.7104024753328462E12	1.0	-6.358695652173913	3.684782608695652	3936.9963369963366	128.0	128.0	-6.3857211334372925	55.056713826264605	48.67099269282731	493.00967908020965	585.531199041748	-4.809160305343512	7.099236641221374	1.3435114503816794	0.16941529235382308	0.7766116941529235	0.9280359820089955	
1.710402475352378E12	1.0217391304347825	-6.369565217391304	3.684782608695652	3936.9963369963366	128.0	128.0	-6.3147534507219145	55.085346112888594	48.77059266216668	493.0093184720658	585.584929655186	-4.183206106870228	6.763358778625954	0.9312977099236641	0.17241379310344826	0.7946026986506747	0.9340329835082458	
1.7104024753719097E12	1.0217391304347825	-6.326086956521739	3.684782608695652	3915.0183150183148	128.0	128.0	-6.27833202819014	55.11606992674708	48.83773789855694	493.0223724868742	585.5941612236693	-3.9541984732824424	7.66412213740458	1.2366412213740459	0.17391304347826086	0.7811094452773613	0.9400299850074962	
1.7104024753914414E12	1.0217391304347825	-6.293478260869565	3.619565217391304	3909.1575091575087	128.0	128.0	-6.305377638981061	55.136696712576956	48.83131907359589	493.02222824361667	585.5328578392098	-4.641221374045801	8.015267175572518	1.282442748091603	0.1619190404797601	0.7796101949025487	0.9415292353823088	
1.7104024754109734E12	1.0	-6.315217391304348	3.652173913043478	3936.9963369963366	128.0	128.0	-6.388533876959548	55.10950685852848	48.720972981568934	493.009895445096	585.4486197767997	-4.244274809160305	7.1603053435114505	1.129770992366412	0.16941529235382308	0.7721139430284857	0.9235382308845577	
1.7104024754305051E12	0.9891304347826086	-6.326086956521739	3.652173913043478	3931.135531135531	128.0	128.0	-6.470103439104967	55.06883025989894	48.59872682079397	493.01566517539806	585.4024619343832	-4.152671755725191	6.885496183206107	0.9770992366412213	0.1664167916041979	0.775112443778111	0.9295352323838081	
1.7104024754500369E12	1.0	-6.33695652173913	3.652173913043478	3936.9963369963366	128.0	128.0	-6.53739291875278	55.02425909331549	48.486866174562714	493.0289355550928	585.3464234288244	-3.679389312977099	6.778625954198473	0.9770992366412213	0.17991004497751123	0.7871064467766117	0.9310344827586207	
1.7104024754695686E12	1.0217391304347825	-6.33695652173913	3.6739130434782608	3938.461538461538	128.0	128.0	-6.54099900019157	54.9908667791923	48.44986777900073	493.00982332346723	585.3371197387123	-3.114503816793893	7.7251908396946565	1.129770992366412	0.1619190404797601	0.7796101949025487	0.9310344827586207	
1.7104024754891003E12	1.0	-6.326086956521739	3.6739130434782608	3925.274725274725	128.0	128.0	-6.542585676024637	54.9744951694602	48.43190949343556	493.03953743452286	585.3437549285597	-3.312977099236641	7.175572519083969	1.3129770992366412	0.17091454272863568	0.7856071964017991	0.9295352323838081	
1.7104024755086323E12	0.9782608695652174	-6.358695652173913	3.652173913043478	3938.461538461538	128.0	128.0	-6.551384514735283	54.972331520596924	48.42094700586164	493.0380228803185	585.3433221987871	-2.854961832061069	5.66412213740458	0.5801526717557252	0.1664167916041979	0.793103448275862	0.9295352323838081	
1.710402475528164E12	1.0108695652173914	-6.326086956521739	3.717391304347826	3915.0183150183148	128.0	128.0	-6.550158447046095	54.96865331752936	48.418494870483265	493.0292240416079	585.3534913484444	-2.0	6.717557251908397	0.916030534351145	0.17691154422788605	0.7946026986506747	0.9385307346326837	
1.7104024755476958E12	1.0	-6.304347826086956	3.510869565217391	3938.461538461538	128.0	128.0	-6.548427527955476	54.96093630325035	48.412508775294874	493.0009523631278	585.351688307725	-2.0763358778625953	6.106870229007633	0.6412213740458015	0.191904047976012	0.7946026986506747	0.9310344827586207	
1.7104024755672275E12	0.9891304347826086	-6.228260869565217	3.6956521739130435	3936.9963369963366	128.0	128.0	-6.548066919811597	54.965984817264655	48.41791789745306	493.021146419185	585.3502458751495	-2.9923664122137406	5.938931297709924	1.1603053435114503	0.1829085457271364	0.7856071964017991	0.9220389805097451	
1.7104024755867593E12	0.9891304347826086	-6.304347826086956	3.608695652173913	3931.135531135531	128.0	128.0	-6.533354107541336	54.96115266813668	48.42779856059534	493.04646111088533	585.3449809962489	-4.259541984732825	6.549618320610687	1.2366412213740459	0.17841079460269865	0.7886056971514243	0.9370314842578711	
1.7104024756062913E12	1.0217391304347825	-6.326086956521739	3.619565217391304	3938.461538461538	128.0	128.0	-6.548499649584252	54.95783507321299	48.40933542362874	493.0679533562605	585.3454858476504	-4.183206106870228	6.641221374045801	1.3740458015267174	0.15892053973013492	0.7631184407796102	0.9370314842578711	
1.710402475625823E12	0.9891304347826086	-6.358695652173913	3.5869565217391304	3938.461538461538	128.0	128.0	-6.552610582424472	54.970456358248754	48.41784577582428	493.0799255466373	585.3453416043927	-3.6946564885496183	6.702290076335878	1.3435114503816794	0.1619190404797601	0.7946026986506747	0.9460269865067465	
1.7104024756453547E12	1.0	-6.369565217391304	3.5652173913043477	3936.9963369963366	128.0	128.0	-6.5465523656073055	54.9384343550723	48.391881989465	493.0701170051238	585.334956089849	-2.763358778625954	6.076335877862595	1.7709923664122136	0.16941529235382308	0.7841079460269865	0.9340329835082458	
1.7104024756648865E12	0.9891304347826086	-6.326086956521739	3.619565217391304	3935.531135531135	128.0	128.0	-6.566457935149424	54.95646476226625	48.39000682711683	493.0572072335729	585.3438991718173	-1.5419847328244274	6.763358778625954	2.1068702290076335	0.1619190404797601	0.7841079460269865	0.9340329835082458	
1.7104024756844182E12	1.0	-6.293478260869565	3.652173913043478	3913.5531135531132	128.0	128.0	-6.558668799241638	54.94586288283621	48.38719408359457	493.06694365345766	585.3401488471209	-2.3206106870229006	7.435114503816793	2.030534351145038	0.1619190404797601	0.7796101949025487	0.9205397301349325	
1.7104024757039502E12	1.0	-6.293478260869565	3.652173913043478	3939.9267399267396	128.0	128.0	-6.558091826211432	54.945790761207434	48.387698934996	493.06333757201884	585.3430337122719	-3.0839694656488548	7.343511450381679	2.2442748091603053	0.18590704647676162	0.7706146926536731	0.9220389805097451	
1.710402475723482E12	1.0	-6.271739130434782	3.608695652173913	3938.461538461538	128.0	128.0	-6.555639690833055	54.93836223344353	48.38272254261047	493.0517981114147	585.3322154679556	-2.4885496183206106	6.65648854961832	2.1221374045801524	0.14842578710644677	0.7886056971514243	0.9430284857571214	
1.7104024757430137E12	1.0	-6.271739130434782	3.641304347826087	3931.135531135531	128.0	128.0	-6.560904569733688	54.94297801768518	48.38207344795149	493.01862216217785	585.3260130078809	-1.9083969465648853	6.870229007633587	1.2671755725190839	0.17091454272863568	0.7856071964017991	0.9430284857571214	
1.7104024757625454E12	0.9782608695652174	-6.293478260869565	3.619565217391304	3938.461538461538	128.0	128.0	-6.550014203788543	54.93230401662636	48.38228981283782	493.0255458385403	585.317935385458	-2.748091603053435	6.946564885496183	1.2213740458015268	0.17391304347826086	0.7811094452773613	0.9400299850074962	
1.7104024757820771E12	0.9891304347826086	-6.3478260869565215	3.5869565217391304	3938.461538461538	128.0	128.0	-6.551456636364059	54.93374644920188	48.38228981283782	493.0272046360022	585.3175747773141	-2.900763358778626	6.824427480916031	1.2213740458015268	0.1664167916041979	0.7886056971514243	0.9400299850074962	
1.7104024758016091E12	1.0	-6.33695652173913	3.5978260869565215	3936.9963369963366	128.0	128.0	-6.5544136231438666	54.924514880718576	48.37010125757471	493.0340561907359	585.3244263320478	-2.6564885496183206	6.8396946564885495	1.9694656488549618	0.17691154422788605	0.7901049475262368	0.9280359820089955	
1.7104024758211409E12	1.0217391304347825	-6.304347826086956	3.641304347826087	3938.461538461538	128.0	128.0	-6.564438529543702	54.92667852958185	48.36224000003815	493.016314270057	585.3116608037544	-0.2595419847328244	7.312977099236641	1.984732824427481	0.17391304347826086	0.7781109445277361	0.9325337331334332	
1.7104024758406726E12	0.9782608695652174	-6.282608695652174	3.6304347826086953	3926.7399267399264	128.0	128.0	-6.554269379886315	54.94341074745783	48.38914136757152	493.0355707449402	585.3264457376536	-1.4351145038167938	7.343511450381679	2.381679389312977	0.1634182908545727	0.7781109445277361	0.9370314842578711	
1.7104024758602043E12	0.9565217391304348	-6.271739130434782	3.6630434782608696	3938.461538461538	128.0	128.0	-6.541359608335449	54.95696961366768	48.41561000533223	493.04422534039327	585.3168535610263	-2.4427480916030535	7.267175572519084	2.732824427480916	0.17391304347826086	0.7781109445277361	0.9550224887556221	
1.710402475879736E12	0.9456521739130435	-6.271739130434782	3.6630434782608696	3936.9963369963366	128.0	128.0	-6.514674605688406	54.953652018743995	48.43897741305559	493.0269161494871	585.3292584811758	-1.618320610687023	6.946564885496183	2.2442748091603053	0.18590704647676162	0.7961019490254873	0.9370314842578711	
1.710402475899268E12	0.9782608695652174	-6.260869565217391	3.6630434782608696	3931.135531135531	128.0	128.0	-6.514818848945958	54.911172379395055	48.3963535304491	493.0087414990356	585.3309172786376	-1.3893129770992365	7.419847328244274	2.2900763358778624	0.1634182908545727	0.793103448275862	0.9370314842578711	
1.7104024759187998E12	0.9565217391304348	-6.25	3.652173913043478	3910.62271062271	128.0	128.0	-6.544100230228929	54.90814327098647	48.364043040757544	493.0637703017915	585.3195220612911	-1.8778625954198473	7.267175572519084	1.66412213740458	0.17691154422788605	0.7871064467766117	0.9385307346326837	
1.7104024759383315E12	0.8913043478260869	-6.25	3.6739130434782608	3938.461538461538	128.0	128.0	-6.564222164657375	54.9110281361375	48.34680597148013	493.0342004339934	585.3206038857227	-1.3435114503816794	6.854961832061068	1.3129770992366412	0.17991004497751123	0.8050974512743628	0.9385307346326837	
1.7104024759578633E12	0.8804347826086957	-6.260869565217391	3.641304347826087	3936.9963369963366	128.0	128.0	-6.567828246096164	54.90042625670746	48.3325980106113	493.03326285281935	585.3246426969341	-1.4045801526717556	6.473282442748092	1.0381679389312977	0.17091454272863568	0.800599700149925	0.9400299850074962	
1.710402475977395E12	0.8804347826086957	-6.25	3.641304347826087	3936.9963369963366	128.0	128.0	-6.5640057997710475	54.90085898648012	48.33685318670907	493.0276373657748	585.3313500084103	-2.16793893129771	6.381679389312977	0.24427480916030533	0.17391304347826086	0.793103448275862	0.9580209895052474	
1.7104024759969268E12	0.9021739130434783	-6.282608695652174	3.6739130434782608	3912.0879120879117	128.0	128.0	-6.500610888077127	54.858739955275055	48.35812906719793	493.0424222996739	585.3898406493474	-2.229007633587786	5.557251908396946	-0.21374045801526717	0.17991004497751123	0.7901049475262368	0.9310344827586207	
1.7104024760164587E12	0.9021739130434783	-6.282608695652174	3.684782608695652	3938.461538461538	128.0	128.0	-6.2955690974675536	55.59365935250037	49.29809025503281	493.01025605323986	585.1666963299151	-1.984732824427481	5.648854961832061	-0.6259541984732824	0.17091454272863568	0.775112443778111	0.9325337331334332	
1.7104024760359905E12	0.9239130434782609	-6.282608695652174	3.684782608695652	3936.9963369963366	128.0	128.0	-6.625525549116797	55.57750410765458	48.95197855853779	493.028214338805	584.8197191738748	-1.83206106870229	5.358778625954198	-0.6564885496183206	0.15442278860569714	0.7841079460269865	0.9175412293853074	
1.7104024760555222E12	0.967391304347826	-6.260869565217391	3.7282608695652173	3931.135531135531	128.0	128.0	-6.696565353460951	55.03940463535841	48.34283928189746	493.013429404906	585.1244330554525	-1.282442748091603	5.83206106870229	-0.42748091603053434	0.17691154422788605	0.7796101949025487	0.9340329835082458	
1.710402476075054E12	0.9891304347826086	-6.228260869565217	3.4782608695652173	3912.0879120879117	128.0	128.0	-6.516982497809232	54.97067272313508	48.45369022532585	492.99518263282573	585.3599822950342	-2.4580152671755724	3.282442748091603	-0.8854961832061068	0.17091454272863568	0.7706146926536731	0.9325337331334332	
1.7104024760945857E12	0.9347826086956521	-6.217391304347826	3.8478260869565215	3938.461538461538	128.0	128.0	-6.505082429061226	54.95047866707786	48.445396238016635	493.01321304001965	585.3788781617735	-2.33587786259542	4.473282442748092	-0.41221374045801523	0.15892053973013492	0.7856071964017991	0.9370314842578711	
1.7104024761141177E12	1.0326086956521738	-6.293478260869565	3.532608695652174	3936.9963369963366	128.0	128.0	-6.479839858989699	54.93540524666372	48.45556538767402	493.016314270057	585.3847921353331	-4.65648854961832	5.679389312977099	-0.4427480916030534	0.17241379310344826	0.7901049475262368	0.9280359820089955	
1.7104024761336494E12	1.108695652173913	-6.228260869565217	3.7282608695652173	3939.9267399267396	128.0	128.0	-6.466569479294954	54.932736746399016	48.46616726710406	493.0109051478988	585.3941679470739	-4.641221374045801	6.106870229007633	-0.2748091603053435	0.16941529235382308	0.7976011994002998	0.9280359820089955	
1.7104024761531812E12	1.0869565217391304	-6.271739130434782	3.6956521739130435	3915.0183150183148	128.0	128.0	-6.4402450847917905	54.92581307003654	48.48556798524475	492.99561536259836	585.4093134891169	-5.49618320610687	7.419847328244274	0.4427480916030534	0.17391304347826086	0.7811094452773613	0.9370314842578711	
1.710402476172713E12	1.0543478260869565	-6.282608695652174	3.6739130434782608	3938.461538461538	128.0	128.0	-6.4210607315374295	54.93684767923924	48.51578694770181	493.0087414990356	585.4220068957815	-6.473282442748092	7.251908396946565	0.8244274809160305	0.17991004497751123	0.7946026986506747	0.9235382308845577	
1.7104024761922446E12	1.0	-6.326086956521739	3.684782608695652	3938.461538461538	128.0	128.0	-6.401227283624087	54.94687258563908	48.54564530201499	493.0184779189203	585.4497737228601	-5.450381679389313	6.641221374045801	0.5801526717557252	0.1649175412293853	0.7946026986506747	0.9460269865067465	
1.7104024762117766E12	0.9891304347826086	-6.33695652173913	3.619565217391304	3929.6703296703295	128.0	128.0	-6.350020927193276	54.975504872263066	48.62548394506979	493.00102448475656	585.4900897133458	-4.473282442748092	6.6106870229007635	1.0381679389312977	0.16941529235382308	0.7946026986506747	0.9280359820089955	
1.7104024762313083E12	1.0108695652173914	-6.358695652173913	3.6739130434782608	3938.461538461538	128.0	128.0	-6.301266706140841	54.98754918426862	48.68628247812778	492.97700798237423	585.532136622922	-3.465648854961832	7.221374045801526	1.2519083969465647	0.1634182908545727	0.7961019490254873	0.9250374812593702	
1.71040247625084E12	1.0217391304347825	-6.3478260869565215	3.652173913043478	3936.9963369963366	128.0	128.0	-6.2246014147521755	55.01690268718036	48.79230127242819	492.97700798237423	585.5687744103402	-2.8702290076335877	7.587786259541985	1.4809160305343512	0.17991004497751123	0.7796101949025487	0.9310344827586207	
1.7104024762703718E12	0.9782608695652174	-6.282608695652174	3.6739130434782608	3935.531135531135	128.0	128.0	-6.21955290073787	55.04351556819863	48.82396266746076	492.972897049534	585.5547106927289	-2.229007633587786	8.13740458015267	1.5267175572519083	0.17241379310344826	0.7871064467766117	0.9415292353823088	
1.7104024762899036E12	1.0	-6.3478260869565215	3.7065217391304346	3923.8095238095234	128.0	128.0	-6.323552289432561	55.04820347406906	48.7246511846365	493.01148212092903	585.4156601924492	-2.5801526717557253	8.213740458015266	1.7099236641221374	0.17391304347826086	0.7811094452773613	0.9250374812593702	
1.7104024763094355E12	0.9891304347826086	-6.358695652173913	3.717391304347826	3913.5531135531132	128.0	128.0	-6.409160662789424	54.99598741483539	48.586826752045965	492.98739349691795	585.3606313896933	-3.312977099236641	7.969465648854961	3.32824427480916	0.18440779610194902	0.7901049475262368	0.9280359820089955	
1.7104024763289673E12	1.0	-6.271739130434782	3.7282608695652173	3936.9963369963366	128.0	128.0	-6.465199168348214	54.9589890192734	48.49378985092519	493.00023114684	585.3270948323125	-1.4961832061068703	7.740458015267175	3.5267175572519083	0.17841079460269865	0.7886056971514243	0.9250374812593702	
1.710402476348499E12	0.9565217391304348	-6.304347826086956	3.7065217391304346	3936.9963369963366	128.0	128.0	-6.506957591409397	54.92718338098328	48.420225789573884	492.96741580574707	585.3099298846638	-2.3664122137404577	7.816793893129771	3.236641221374046	0.1664167916041979	0.7781109445277361	0.9370314842578711	
1.7104024763680308E12	0.9239130434782609	-6.423913043478261	3.6630434782608696	3929.6703296703295	128.0	128.0	-6.521021309020676	54.92393790768837	48.402916598667694	492.9850856047971	585.3052419787934	-3.49618320610687	7.679389312977099	4.1679389312977095	0.17391304347826086	0.7961019490254873	0.9325337331334332	
1.7104024763875625E12	0.8043478260869565	-6.380434782608695	3.5760869565217392	3936.9963369963366	128.0	128.0	-6.529675904473771	54.93014036776309	48.40046446328932	493.00412571479393	585.3271669539413	-1.0534351145038168	6.534351145038167	4.213740458015267	0.16941529235382308	0.7841079460269865	0.9385307346326837	
1.7104024764070945E12	0.8369565217391304	-6.282608695652174	3.8043478260869565	3936.9963369963366	128.0	128.0	-6.53328198591256	54.94211255813987	48.40883057222731	493.021795513844	585.3389949010605	1.0381679389312977	5.450381679389313	3.1755725190839694	0.17691154422788605	0.7901049475262368	0.9385307346326837	
1.7104024764266262E12	0.8695652173913043	-6.25	3.5978260869565215	3932.6007326007325	128.0	128.0	-6.540638392047691	54.94564651794988	48.40500812590219	492.9993656872947	585.3508949698085	0.6717557251908397	6.3969465648854955	1.0076335877862594	0.1634182908545727	0.8035982008995503	0.9250374812593702	
1.710402476446158E12	0.8369565217391304	-6.239130434782608	3.684782608695652	3936.9963369963366	128.0	128.0	-6.532272283109699	54.93728040901189	48.40500812590219	492.99035048369774	585.3473610099985	-1.297709923664122	5.419847328244274	-0.10687022900763359	0.1619190404797601	0.7901049475262368	0.9235382308845577	
1.7104024764656897E12	0.8152173913043478	-6.239130434782608	3.75	3915.0183150183148	128.0	128.0	-6.529603782844995	54.94564651794988	48.41604273510489	492.96496367036866	585.3342348735613	-1.7709923664122136	4.442748091603053	-0.366412213740458	0.17091454272863568	0.7886056971514243	0.9295352323838081	
1.7104024764852214E12	0.8804347826086957	-6.217391304347826	3.782608695652174	3912.0879120879117	128.0	128.0	-6.516910376180456	54.94189619325354	48.424985817073086	492.96979581949665	585.3322154679556	-0.9007633587786259	4.854961832061068	-0.3969465648854962	0.1664167916041979	0.7886056971514243	0.9505247376311844	
1.7104024765047534E12	0.9565217391304348	-6.228260869565217	3.7391304347826084	3936.9963369963366	128.0	128.0	-6.519218268301281	54.94139134185211	48.42217307355083	492.98342680733526	585.3219020750406	-2.931297709923664	5.374045801526718	-1.2519083969465647	0.15892053973013492	0.7856071964017991	0.9220389805097451	
1.7104024765242852E12	0.967391304347826	-6.25	3.717391304347826	3929.6703296703295	128.0	128.0	-6.506020010235312	54.92098092090856	48.41496091067325	492.993812321879	585.3319991030693	-2.396946564885496	6.015267175572519	-1.984732824427481	0.1649175412293853	0.7841079460269865	0.9340329835082458	
1.710402476543817E12	0.9456521739130435	-6.217391304347826	3.7282608695652173	3938.461538461538	128.0	128.0	-6.514818848945958	54.913408149887104	48.39858930094115	492.9982838628631	585.3172141691703	-1.114503816793893	5.984732824427481	-1.66412213740458	0.17841079460269865	0.7886056971514243	0.9220389805097451	
1.7104024765633486E12	0.9347826086956521	-6.228260869565217	3.75	3938.461538461538	128.0	128.0	-6.502413928796522	54.89040135030763	48.387987421511106	492.9907110918416	585.3182959936019	-2.748091603053435	6.702290076335878	-1.5114503816793892	0.17241379310344826	0.7946026986506747	0.9310344827586207	
1.7104024765828804E12	0.9782608695652174	-6.271739130434782	3.717391304347826	3938.461538461538	128.0	128.0	-6.506669104894294	54.89364682360254	48.386977718708245	492.9779455635483	585.3056025869373	-4.870229007633587	6.442748091603053	-1.3740458015267174	0.17091454272863568	0.793103448275862	0.9145427286356821	
1.710402476602412E12	0.9456521739130435	-6.304347826086956	3.7065217391304346	3938.461538461538	128.0	128.0	-6.499168455501612	54.88592980932353	48.38676135382192	492.97578191468506	585.2956498021663	-4.778625954198473	6.6106870229007635	-1.4961832061068703	0.15892053973013492	0.7961019490254873	0.9400299850074962	
1.710402476621944E12	0.9456521739130435	-6.326086956521739	3.7391304347826084	3913.5531135531132	128.0	128.0	-6.494841157775063	54.88217948462719	48.387338326852124	492.98169588824464	585.2836776117895	-3.3893129770992365	6.564885496183206	-1.2671755725190839	0.1664167916041979	0.7886056971514243	0.9325337331334332	
1.7104024766414758E12	1.0108695652173914	-6.304347826086956	3.75	3938.461538461538	128.0	128.0	-6.506308496750415	54.89278136405723	48.386472867306814	493.01126575604275	585.2885097609175	-3.66412213740458	6.3969465648854955	-1.282442748091603	0.19040479760119938	0.7781109445277361	0.9325337331334332	
1.7104024766610076E12	1.0108695652173914	-6.293478260869565	3.717391304347826	3936.9963369963366	128.0	128.0	-6.492100535881583	54.889752255648645	48.39765171976706	493.033046487933	585.2916831125835	-3.969465648854962	6.106870229007633	-1.4198473282442747	0.1664167916041979	0.7781109445277361	0.9190404797601199	
1.7104024766805393E12	1.0	-6.315217391304348	3.717391304347826	3928.205128205128	128.0	128.0	-6.502053320652643	54.896603810382345	48.3945504897297	493.03528225842507	585.2831006387593	-4.381679389312977	6.259541984732824	-1.282442748091603	0.1634182908545727	0.7781109445277361	0.9325337331334332	
1.710402476700071E12	1.0217391304347825	-6.304347826086956	3.7282608695652173	3938.461538461538	128.0	128.0	-6.4896484005032065	54.92545246189266	48.435804061389454	493.04249442130265	585.280936989896	-4.091603053435114	6.305343511450381	-1.282442748091603	0.16941529235382308	0.7721139430284857	0.9310344827586207	
1.710402476719603E12	1.0434782608695652	-6.33695652173913	3.7717391304347827	3938.461538461538	128.0	128.0	-6.493110238684444	54.94809865332826	48.454988414643815	493.0360755963416	585.2665847857696	-4.824427480916031	6.473282442748092	-0.9007633587786259	0.17691154422788605	0.7976011994002998	0.9340329835082458	
1.7104024767391348E12	0.9456521739130435	-6.326086956521739	3.7717391304347827	3925.274725274725	128.0	128.0	-6.464117343916577	54.931222192194724	48.46710484827815	493.0271325143734	585.2772587868284	-4.763358778625954	6.534351145038167	-0.8549618320610687	0.17691154422788605	0.7871064467766117	0.9235382308845577	
1.7104024767586665E12	0.8260869565217391	-6.293478260869565	3.717391304347826	3938.461538461538	128.0	128.0	-6.472555574483344	54.886506782353734	48.41395120787039	493.0029717687335	585.2880770311448	-4.9465648854961835	5.587786259541985	-1.9236641221374045	0.18440779610194902	0.8020989505247376	0.9310344827586207	
1.7104024767781982E12	0.8369565217391304	-6.293478260869565	3.717391304347826	3915.0183150183148	128.0	128.0	-6.5057315237202085	54.88895891773211	48.383227394011904	492.99864447100697	585.2824515441002	-4.748091603053435	3.8931297709923665	-3.3435114503816794	0.17691154422788605	0.7871064467766117	0.9415292353823088	
1.71040247679773E12	0.9891304347826086	-6.304347826086956	3.7391304347826084	3938.461538461538	128.0	128.0	-6.522607984853743	54.89270924242845	48.37010125757471	492.9707334006707	585.2943516128482	-4.351145038167939	3.7251908396946565	-5.267175572519084	0.16941529235382308	0.7841079460269865	0.9385307346326837	
1.710402476817262E12	1.141304347826087	-6.271739130434782	3.6956521739130435	3936.9963369963366	128.0	128.0	-6.515251578718613	54.89054559356518	48.37529401484657	492.97246431976134	585.2849758011074	-4.900763358778626	3.9541984732824424	-5.022900763358779	0.17691154422788605	0.7796101949025487	0.9310344827586207	
1.7104024768367937E12	1.2065217391304348	-6.239130434782608	3.6630434782608696	3928.205128205128	128.0	128.0	-6.494336306373633	54.88881467447456	48.39447836810093	492.9850856047971	585.2860576255391	-4.473282442748092	5.32824427480916	-3.618320610687023	0.17091454272863568	0.7856071964017991	0.9295352323838081	
1.7104024768563254E12	1.2391304347826086	-6.260869565217391	3.684782608695652	3910.62271062271	128.0	128.0	-6.414930393091487	54.86140845553976	48.44647806244827	493.0097512018384	585.3956825012783	-4.687022900763359	5.572519083969466	-1.618320610687023	0.17841079460269865	0.7856071964017991	0.9295352323838081	
1.7104024768758572E12	1.2826086956521738	-6.358695652173913	3.684782608695652	3936.9963369963366	128.0	128.0	-6.249050646907168	55.882362232489854	49.63331158558269	492.9829219559338	584.7938275091443	-6.122137404580153	7.694656488549618	0.732824427480916	0.17241379310344826	0.7871064467766117	0.9175412293853074	
1.710402476895389E12	1.315217391304348	-6.434782608695652	3.75	3935.531135531135	128.0	128.0	-6.615644885974513	55.35349432867698	48.73784944270247	493.00643360691475	584.7443520718041	-6.625954198473282	10.6412213740458	3.236641221374046	0.17241379310344826	0.7901049475262368	0.9280359820089955	
1.710402476914921E12	1.3478260869565217	-6.423913043478261	3.619565217391304	3938.461538461538	128.0	128.0	-6.53551775640461	55.0000983476756	48.464580591270995	493.02020883801094	585.286418233683	-5.969465648854961	11.908396946564885	4.6106870229007635	0.1634182908545727	0.800599700149925	0.9295352323838081	
1.7104024769344526E12	1.2173913043478262	-6.391304347826087	3.641304347826087	3915.0183150183148	128.0	128.0	-6.499096333872836	54.98488068400391	48.48578435013108	493.0261949331993	585.3339463870462	-5.6183206106870225	11.32824427480916	4.824427480916031	0.1619190404797601	0.7841079460269865	0.9385307346326837	
1.7104024769539844E12	1.1521739130434783	-6.369565217391304	3.8369565217391304	3939.9267399267396	128.0	128.0	-6.485104737890332	54.97629821017959	48.49119347228926	493.0178288242613	585.3489476858316	-5.938931297709924	12.458015267175572	5.66412213740458	0.17391304347826086	0.7811094452773613	0.9295352323838081	
1.710402476973516E12	1.141304347826087	-6.391304347826087	3.543478260869565	3938.461538461538	128.0	128.0	-6.4779646966415285	54.97312485851346	48.49516016187193	493.04819202997595	585.3574580380271	-6.3206106870229	12.732824427480915	5.068702290076335	0.17241379310344826	0.7841079460269865	0.9385307346326837	
1.7104024769930479E12	1.141304347826087	-6.304347826086956	3.6630434782608696	3929.6703296703295	128.0	128.0	-6.472916182627223	54.987188576124744	48.51427239349752	493.03780651543224	585.3631556467004	-1.4961832061068703	13.526717557251908	5.66412213740458	0.16941529235382308	0.7841079460269865	0.9340329835082458	
1.7104024770125798E12	1.0434782608695652	-6.25	3.5869565217391304	3938.461538461538	128.0	128.0	-6.459357316417375	54.98848676544271	48.52912944902533	493.0426386645602	585.397052812225	-1.4351145038167938	12.396946564885496	5.66412213740458	0.16941529235382308	0.7796101949025487	0.9385307346326837	
1.7104024770321116E12	0.9239130434782609	-6.304347826086956	3.6739130434782608	3938.461538461538	128.0	128.0	-6.45207303191102	55.00204563165256	48.54997259974154	493.0438647322494	585.4101068270335	-4.748091603053435	12.061068702290076	5.190839694656488	0.1934032983508246	0.7781109445277361	0.9220389805097451	
1.7104024770516433E12	0.8913043478260869	-6.33695652173913	3.6304347826086953	3936.9963369963366	128.0	128.0	-6.413992811917402	55.01928270092997	48.60528988901257	493.02871919020646	585.4570580073664	-6.580152671755725	10.183206106870228	4.488549618320611	0.1649175412293853	0.7796101949025487	0.9415292353823088	
1.710402477071175E12	0.8913043478260869	-6.358695652173913	3.608695652173913	3938.461538461538	128.0	128.0	-6.38644234972505	55.030677918276545	48.644235568551494	493.0362919612279	585.5012685658061	-4.152671755725191	9.48091603053435	3.8931297709923665	0.1649175412293853	0.7841079460269865	0.9280359820089955	
1.7104024770907068E12	0.8260869565217391	-6.326086956521739	3.641304347826087	3916.4835164835163	128.0	128.0	-6.338192980074046	55.040774946305156	48.70258196623111	493.03239739327404	585.5422336509507	-3.099236641221374	9.221374045801527	3.2061068702290076	0.1634182908545727	0.7886056971514243	0.9220389805097451	
1.7104024771102388E12	0.8369565217391304	-6.315217391304348	3.641304347826087	3938.461538461538	128.0	128.0	-6.2804956770534135	55.07084966550466	48.790353988451244	493.00059175498393	585.5901945340865	-3.7862595419847325	8.65648854961832	2.030534351145038	0.16941529235382308	0.7946026986506747	0.9310344827586207	
1.7104024771297705E12	0.8152173913043478	-6.293478260869565	3.6739130434782608	3936.9963369963366	128.0	128.0	-6.2873472317871135	55.090106140387796	48.80275890860068	493.026627662972	585.5545664494713	-3.7404580152671754	8.732824427480915	1.5725190839694656	0.17241379310344826	0.7871064467766117	0.9340329835082458	
1.7104024771493022E12	0.8152173913043478	-6.315217391304348	3.6304347826086953	3928.205128205128	128.0	128.0	-6.3888223634746515	55.06688297592199	48.67806061244734	493.05994785546636	585.4259735853641	-3.6488549618320607	8.183206106870228	1.450381679389313	0.1649175412293853	0.7796101949025487	0.9310344827586207	
1.710402477168834E12	0.8260869565217391	-6.33695652173913	3.5543478260869565	3936.9963369963366	128.0	128.0	-6.463251884371267	55.01906633604364	48.555814451672376	493.02403128433605	585.3577465245422	-2.854961832061069	7.679389312977099	1.5267175572519083	0.15592203898050974	0.7886056971514243	0.9430284857571214	
1.7104024771883657E12	0.8369565217391304	-6.304347826086956	3.619565217391304	3931.135531135531	128.0	128.0	-6.540854756934018	54.983798859572275	48.44294410263826	493.0084530125205	585.3305566704937	-1.8931297709923662	7.511450381679389	1.648854961832061	0.1649175412293853	0.7796101949025487	0.9415292353823088	
1.7104024772078975E12	0.858695652173913	-6.260869565217391	3.641304347826087	3936.9963369963366	128.0	128.0	-6.550014203788543	54.96540784423445	48.415393640445906	493.00102448475656	585.3220463182981	-1.618320610687023	7.2824427480916025	1.282442748091603	0.16941529235382308	0.7841079460269865	0.9310344827586207	
1.7104024772274294E12	0.8695652173913043	-6.315217391304348	3.6630434782608696	3938.461538461538	128.0	128.0	-6.557082123408571	54.96180176279566	48.40471963938709	493.02929616323667	585.3147620337918	-2.564885496183206	7.480916030534351	1.465648854961832	0.1634182908545727	0.800599700149925	0.9400299850074962	
1.7104024772469612E12	0.8804347826086957	-6.33695652173913	3.608695652173913	3919.4139194139193	128.0	128.0	-6.565664597232891	54.965624209120776	48.39995961188789	493.01097726952764	585.3193778180334	-3.0076335877862594	7.038167938931298	1.3435114503816794	0.15592203898050974	0.793103448275862	0.9370314842578711	
1.710402477266493E12	0.9239130434782609	-6.326086956521739	3.6739130434782608	3938.461538461538	128.0	128.0	-6.570208259845765	54.963604803515054	48.39339654366929	493.02258885176053	585.3192335747759	-1.8778625954198473	6.183206106870228	1.3435114503816794	0.18590704647676162	0.7856071964017991	0.9475262368815592	
1.7104024772860247E12	0.9130434782608695	-6.271739130434782	3.4891304347826084	3938.461538461538	128.0	128.0	-6.57287676011047	54.96980726358977	48.396930503479304	493.02157914895764	585.3325760760995	-1.0687022900763359	6.5038167938931295	0.8396946564885496	0.17091454272863568	0.793103448275862	0.9295352323838081	
1.7104024773055564E12	0.9239130434782609	-6.239130434782608	3.684782608695652	3928.205128205128	128.0	128.0	-6.567467637952285	54.965119357719345	48.39765171976706	493.00470268782414	585.3307009137512	-0.8091603053435115	6.412213740458015	0.7175572519083969	0.17991004497751123	0.7796101949025487	0.9280359820089955	
1.7104024773250884E12	0.9456521739130435	-6.282608695652174	3.608695652173913	3938.461538461538	128.0	128.0	-6.568982192156577	54.95848416787197	48.3895019757154	493.03441679887976	585.3304124272362	-2.5801526717557253	6.091603053435114	1.099236641221374	0.17991004497751123	0.7871064467766117	0.9415292353823088	
1.71040247734462E12	0.967391304347826	-6.315217391304348	3.619565217391304	3938.461538461538	128.0	128.0	-6.575040408973743	54.96172964116688	48.38668923219314	493.0631212071325	585.3212529803817	-3.6030534351145036	5.66412213740458	0.5038167938931297	0.17691154422788605	0.7841079460269865	0.9235382308845577	
1.7104024773641519E12	1.0217391304347825	-6.304347826086956	3.608695652173913	3936.9963369963366	128.0	128.0	-6.587445329123179	54.95624839737992	48.368803068256746	493.0657175857684	585.3299075758348	-2.183206106870229	6.534351145038167	0.2900763358778626	0.16941529235382308	0.7841079460269865	0.9415292353823088	
1.7104024773836836E12	1.0217391304347825	-6.326086956521739	3.641304347826087	3938.461538461538	128.0	128.0	-6.575761625261501	54.95033442382031	48.37457279855881	493.0601642203527	585.3178632638292	-1.4351145038167938	6.641221374045801	0.32061068702290074	0.1649175412293853	0.7901049475262368	0.9205397301349325	
1.7104024774032153E12	1.0	-6.293478260869565	3.6630434782608696	3920.879120879121	128.0	128.0	-6.588166545410937	54.95300292408501	48.36483637867408	493.0572793552017	585.329186359547	-2.549618320610687	6.809160305343511	0.8091603053435115	0.17091454272863568	0.7811094452773613	0.9400299850074962	
1.7104024774227473E12	0.9782608695652174	-6.293478260869565	3.6630434782608696	3938.461538461538	128.0	128.0	-6.587373207494403	54.95473384317563	48.36736063568123	493.0691073023209	585.3363264007958	-3.0381679389312977	7.145038167938931	0.4580152671755725	0.1634182908545727	0.800599700149925	0.9430284857571214	
1.710402477442279E12	1.0108695652173914	-6.315217391304348	3.5978260869565215	3938.461538461538	128.0	128.0	-6.594585370371982	54.95704173529646	48.362456364924476	493.0613902880419	585.3229117778435	-3.1908396946564883	7.038167938931298	1.099236641221374	0.1634182908545727	0.7781109445277361	0.9295352323838081	
1.7104024774618108E12	0.9891304347826086	-6.271739130434782	3.652173913043478	3928.205128205128	128.0	128.0	-6.599994492530167	54.95098351847929	48.350989025949126	493.04905748952126	585.3246426969341	-3.282442748091603	7.572519083969465	1.4045801526717556	0.17691154422788605	0.7871064467766117	0.9340329835082458	
1.7104024774813425E12	0.9891304347826086	-6.33695652173913	3.641304347826087	3936.9963369963366	128.0	128.0	-6.597109627379135	54.94348286908661	48.346373241707475	493.04249442130265	585.315988101481	-4.824427480916031	8.015267175572518	1.0687022900763359	0.17391304347826086	0.7886056971514243	0.9400299850074962	
1.7104024775008743E12	0.9239130434782609	-6.358695652173913	3.641304347826087	3938.461538461538	128.0	128.0	-6.584776828858475	54.94744955866928	48.362672729810804	493.04033077243935	585.3252196699643	-3.633587786259542	8.0	1.816793893129771	0.19040479760119938	0.8065967016491754	0.9370314842578711	
1.7104024775204062E12	0.9239130434782609	-6.315217391304348	3.652173913043478	3936.9963369963366	128.0	128.0	-6.586940477721749	54.98502492726146	48.398084449539716	493.0385998533487	585.3217578317831	-2.3664122137404577	7.679389312977099	1.6793893129770991	0.1649175412293853	0.7871064467766117	0.9385307346326837	
1.710402477539938E12	0.9021739130434783	-6.33695652173913	3.619565217391304	3936.9963369963366	128.0	128.0	-6.557370609923674	54.965479965863224	48.40810935593955	493.012780310247	585.3262293727672	-3.068702290076336	7.633587786259541	1.3129770992366412	0.1634182908545727	0.775112443778111	0.9370314842578711	
1.7104024775594697E12	0.8804347826086957	-6.33695652173913	3.652173913043478	3922.344322344322	128.0	128.0	-6.557154245037347	54.95112776173684	48.393973516699496	493.0024669173321	585.3288257514031	-2.427480916030534	7.022900763358779	0.5190839694656488	0.17841079460269865	0.793103448275862	0.9400299850074962	
1.7104024775790015E12	0.8695652173913043	-6.271739130434782	3.6956521739130435	3936.9963369963366	128.0	128.0	-6.575545260375174	54.933097354542895	48.35755209416772	493.0283585820626	585.3350282114778	-0.7633587786259541	6.290076335877862	0.6259541984732824	0.17391304347826086	0.7961019490254873	0.9325337331334332	
1.7104024775985332E12	0.8913043478260869	-6.25	3.641304347826087	3936.9963369963366	128.0	128.0	-6.611533953134293	54.93922769298884	48.327693739854546	493.0056402689982	585.334667603334	-1.297709923664122	6.442748091603053	0.6717557251908397	0.1619190404797601	0.7946026986506747	0.9460269865067465	
1.7104024776180652E12	0.8804347826086957	-6.239130434782608	3.619565217391304	3929.6703296703295	128.0	128.0	-6.610884858475311	54.93850647670108	48.32762161822577	493.05598116588374	585.3334415356447	-1.0229007633587786	5.83206106870229	0.4580152671755725	0.16941529235382308	0.7841079460269865	0.9460269865067465	
1.710402477637597E12	0.9021739130434783	-6.195652173913043	3.608695652173913	3934.065934065934	128.0	128.0	-6.605692101203454	54.93266462477024	48.32697252356679	493.04602838111265	585.3374803468562	-0.6870229007633587	5.068702290076335	0.6717557251908397	0.17091454272863568	0.7856071964017991	0.9475262368815592	
1.7104024776571287E12	0.9130434782608695	-6.206521739130435	3.6630434782608696	3938.461538461538	128.0	128.0	-6.5931429377964665	54.92119728579489	48.328054347998425	493.0536732737629	585.3436106853021	-1.1603053435114503	5.648854961832061	0.33587786259541985	0.18590704647676162	0.7961019490254873	0.9400299850074962	
1.7104024776766604E12	0.9239130434782609	-6.228260869565217	3.608695652173913	3936.9963369963366	128.0	128.0	-6.467867668612918	54.89775775644276	48.42989008782984	493.03867197497755	585.5158371348188	-3.0534351145038165	6.061068702290076	0.564885496183206	0.1664167916041979	0.7886056971514243	0.9400299850074962	
1.7104024776961921E12	0.9456521739130435	-6.260869565217391	3.608695652173913	3938.461538461538	128.0	128.0	-6.434042624717072	55.94640623884276	49.51236361412569	493.0517981114147	584.869843705874	-3.679389312977099	6.106870229007633	0.183206106870229	0.18590704647676162	0.7961019490254873	0.9325337331334332	
1.710402477715724E12	0.9565217391304348	-6.271739130434782	3.684782608695652	3926.7399267399264	128.0	128.0	-6.835976461884554	55.25375011608006	48.41777365419551	493.07386732982013	584.9449223214295	-2.931297709923664	5.801526717557252	-0.13740458015267176	0.17991004497751123	0.7721139430284857	0.9460269865067465	
1.7104024777352559E12	0.9891304347826086	-6.271739130434782	3.543478260869565	3938.461538461538	128.0	128.0	-6.604249668627938	54.985169170519015	48.38091950189108	493.04934597603636	585.3415191580676	-3.7404580152671754	6.717557251908397	0.2748091603053435	0.15442278860569714	0.7841079460269865	0.9385307346326837	
1.7104024777547876E12	0.9239130434782609	-6.271739130434782	3.6304347826086953	3939.9267399267396	128.0	128.0	-6.5725882735953665	54.98199581885288	48.409407545257515	493.07516551913807	585.3783733103721	-4.366412213740458	5.526717557251908	-0.33587786259541985	0.1649175412293853	0.7796101949025487	0.9340329835082458	
1.7104024777743193E12	0.9565217391304348	-6.271739130434782	3.717391304347826	3928.205128205128	128.0	128.0	-6.552538460795696	54.968364831014256	48.41582637021856	493.07704068148627	585.3990000962019	-2.900763358778626	7.450381679389313	0.10687022900763359	0.1634182908545727	0.800599700149925	0.9370314842578711	
1.710402477793851E12	1.0543478260869565	-6.304347826086956	3.532608695652174	3910.62271062271	128.0	128.0	-6.528089228640703	54.96447026306036	48.43638103441966	493.07617522194096	585.4055631644205	-4.198473282442748	8.045801526717558	0.32061068702290074	0.15742128935532235	0.7766116941529235	0.9280359820089955	
1.7104024778133828E12	1.0	-6.25	3.6956521739130435	3938.461538461538	128.0	128.0	-6.513376416370442	54.9703121149912	48.45693569862076	493.0867049797422	585.4248196393037	-2.519083969465649	8.51908396946565	0.732824427480916	0.17841079460269865	0.7811094452773613	0.9295352323838081	
1.7104024778329148E12	1.0	-6.260869565217391	3.641304347826087	3936.9963369963366	128.0	128.0	-6.490946589821171	54.96576845237833	48.47482186255716	493.05857754451966	585.4430664113839	-3.49618320610687	8.412213740458014	0.9465648854961831	0.1634182908545727	0.7781109445277361	0.9250374812593702	
1.7104024778524465E12	0.9347826086956521	-6.33695652173913	3.684782608695652	3938.461538461538	128.0	128.0	-6.479551372474596	54.97615396692204	48.496602594447445	493.06276059898863	585.4541010205867	-4.8396946564885495	7.801526717557252	0.6564885496183206	0.1664167916041979	0.7781109445277361	0.9430284857571214	
1.7104024778719783E12	0.9456521739130435	-6.326086956521739	3.7065217391304346	3928.205128205128	128.0	128.0	-6.4327444353991075	55.01041174059055	48.57766730519144	493.06066907175415	585.5055958635326	-5.541984732824427	7.603053435114504	0.3053435114503817	0.1664167916041979	0.7886056971514243	0.9220389805097451	
1.71040247789151E12	0.9565217391304348	-6.33695652173913	3.6956521739130435	3938.461538461538	128.0	128.0	-6.374830767492148	55.01942694418752	48.64459617669537	493.0384556100912	585.5285305414833	-5.419847328244274	7.969465648854961	0.7175572519083969	0.18440779610194902	0.7901049475262368	0.9310344827586207	
1.7104024779110417E12	0.9891304347826086	-6.358695652173913	3.717391304347826	3938.461538461538	128.0	128.0	-6.310858882768021	55.048347717326614	48.73748883455859	493.0164585133146	585.5834151009816	-4.916030534351145	8.290076335877862	0.41221374045801523	0.15742128935532235	0.7766116941529235	0.9340329835082458	
1.7104024779305737E12	0.9782608695652174	-6.33695652173913	3.6630434782608696	3928.205128205128	128.0	128.0	-6.290232096938145	55.0725084629665	48.782276366028356	493.029512528123	585.5852902633299	-4.65648854961832	8.885496183206106	0.6106870229007634	0.17091454272863568	0.793103448275862	0.9250374812593702	
1.7104024779501055E12	0.9347826086956521	-6.293478260869565	3.619565217391304	3936.9963369963366	128.0	128.0	-6.357810063101061	55.08851946455473	48.730709401453666	493.06449151807925	585.494200646186	-4.33587786259542	8.65648854961832	0.6106870229007634	0.1829085457271364	0.793103448275862	0.9325337331334332	
1.7104024779696372E12	0.9130434782608695	-6.271739130434782	3.6304347826086953	3936.9963369963366	128.0	128.0	-6.441903882253634	55.04892469035682	48.60702080810319	493.06593395065477	585.424098423016	-3.465648854961832	7.8473282442748085	0.8091603053435115	0.17091454272863568	0.7886056971514243	0.9190404797601199	
1.710402477989169E12	0.9456521739130435	-6.282608695652174	3.5978260869565215	3935.531135531135	128.0	128.0	-6.512006105423702	55.01149356502218	48.49948745959848	493.0374459072883	585.3767145129102	-3.7404580152671754	7.755725190839694	0.9618320610687022	0.16941529235382308	0.7946026986506747	0.9235382308845577	
1.7104024780087007E12	0.9456521739130435	-6.315217391304348	3.5978260869565215	3936.9963369963366	128.0	128.0	-6.558019704582656	54.9744951694602	48.41647546487754	493.0523750844449	585.3547895377624	-4.396946564885496	7.419847328244274	0.9007633587786259	0.1664167916041979	0.7856071964017991	0.9430284857571214	
1.7104024780282327E12	0.9456521739130435	-6.304347826086956	3.6630434782608696	3912.0879120879117	128.0	128.0	-6.5602554750747055	54.95581566760727	48.395560192532564	493.0396095561516	585.3528422537854	-3.541984732824427	7.541984732824427	0.8549618320610687	0.1664167916041979	0.7781109445277361	0.9400299850074962	
1.7104024780477644E12	0.9021739130434783	-6.293478260869565	3.5543478260869565	3938.461538461538	128.0	128.0	-6.572083422193936	54.95696961366768	48.38488619147375	493.057495720088	585.3532749835581	-3.7404580152671754	7.038167938931298	0.9618320610687022	0.15892053973013492	0.800599700149925	0.9250374812593702	
1.7104024780672961E12	0.9347826086956521	-6.326086956521739	3.7717391304347827	3938.461538461538	128.0	128.0	-6.580305287874376	54.95848416787197	48.3781788799976	493.0603084636103	585.3537798349595	-3.8931297709923665	7.175572519083969	0.41221374045801523	0.1634182908545727	0.7886056971514243	0.9400299850074962	
1.710402478086828E12	0.9347826086956521	-6.293478260869565	3.5652173913043477	3923.8095238095234	128.0	128.0	-6.581026504162134	54.95574354597849	48.37471704181636	493.03722954240203	585.3585398624588	-3.4198473282442747	7.32824427480916	0.8244274809160305	0.16941529235382308	0.7901049475262368	0.9460269865067465	
1.7104024781063596E12	0.9239130434782609	-6.304347826086956	3.510869565217391	3938.461538461538	128.0	128.0	-6.573237368254349	54.94636773423764	48.37313036598329	493.0181173107764	585.3576744029134	-3.129770992366412	6.442748091603053	0.10687022900763359	0.1829085457271364	0.7886056971514243	0.9505247376311844	
1.7104024781258916E12	0.9239130434782609	-6.271739130434782	3.652173913043478	3938.461538461538	128.0	128.0	-6.57475192245864	54.953291410600116	48.37853948814148	493.0463889892565	585.3525537672704	-1.9694656488549618	5.083969465648854	0.4427480916030534	0.1829085457271364	0.7961019490254873	0.9295352323838081	
1.7104024781454233E12	0.9782608695652174	-6.271739130434782	3.6630434782608696	3935.531135531135	128.0	128.0	-6.568982192156577	54.946439855866416	48.37745766370984	493.02929616323667	585.3459906990518	-3.099236641221374	4.717557251908397	0.732824427480916	0.18590704647676162	0.7886056971514243	0.9370314842578711	
1.710402478164955E12	1.0	-6.3478260869565215	3.608695652173913	3929.6703296703295	128.0	128.0	-6.577997395753551	54.943554990715384	48.365557594961835	493.0226609733893	585.3473610099985	-4.366412213740458	4.99236641221374	-0.07633587786259542	0.1664167916041979	0.7781109445277361	0.9325337331334332	
1.7104024781844868E12	1.0	-6.326086956521739	3.5543478260869565	3931.135531135531	128.0	128.0	-6.563356705112065	54.92631792143797	48.36296121632591	493.01234758047434	585.3405094552647	-3.8625954198473282	6.213740458015267	0.5801526717557252	0.15892053973013492	0.7886056971514243	0.9295352323838081	
1.7104024782040186E12	0.967391304347826	-6.25	3.5869565217391304	3938.461538461538	128.0	128.0	-6.575401017117622	54.93151067870983	48.35610966159221	493.0189827703217	585.3473610099985	-2.748091603053435	6.473282442748092	0.16793893129770993	0.17091454272863568	0.7811094452773613	0.9325337331334332	
1.7104024782235505E12	0.967391304347826	-6.282608695652174	3.684782608695652	3938.461538461538	128.0	128.0	-6.573886462913331	54.928625813558796	48.35473935064547	493.0160979051707	585.3377688333713	-4.99236641221374	7.083969465648854	0.15267175572519084	0.1634182908545727	0.7811094452773613	0.9400299850074962	
1.7104024782430823E12	0.9565217391304348	-6.3478260869565215	3.6630434782608696	3926.7399267399264	128.0	128.0	-6.580738017647031	54.928986421702675	48.348248404055646	493.0110493911564	585.3415912796964	-7.358778625954198	7.129770992366412	0.3511450381679389	0.17841079460269865	0.7811094452773613	0.9250374812593702	
1.710402478262614E12	0.9347826086956521	-6.304347826086956	3.641304347826087	3938.461538461538	128.0	128.0	-6.586219261433991	54.93648707109536	48.35026780966137	493.0131409183909	585.3477937397712	-6.244274809160305	6.641221374045801	0.2900763358778626	0.16941529235382308	0.7871064467766117	0.9280359820089955	
1.7104024782821458E12	0.9565217391304348	-6.315217391304348	3.641304347826087	3939.9267399267396	128.0	128.0	-6.584776828858475	54.94362711234416	48.35885028348569	493.01436698608006	585.330123940721	-4.305343511450381	7.038167938931298	0.7022900763358778	0.16941529235382308	0.7901049475262368	0.9385307346326837	
1.7104024783016775E12	0.967391304347826	-6.293478260869565	3.619565217391304	3936.9963369963366	128.0	128.0	-6.58297378813908	54.93374644920188	48.3507726610628	493.0161700267995	585.3270948323125	-3.129770992366412	7.083969465648854	0.8244274809160305	0.17241379310344826	0.8095952023988006	0.9415292353823088	
1.7104024783212095E12	0.9891304347826086	-6.315217391304348	3.619565217391304	3938.461538461538	128.0	128.0	-6.584055612570717	54.933602205944325	48.34954659337361	493.0164585133146	585.3300518190923	-3.480916030534351	7.206106870229007	0.5343511450381679	0.1664167916041979	0.7961019490254873	0.9295352323838081	
1.7104024783407412E12	0.9782608695652174	-6.293478260869565	3.608695652173913	3913.5531135531132	128.0	128.0	-6.575040408973743	54.929996124505536	48.354955715531794	492.9943171732804	585.3167814393976	-3.32824427480916	7.007633587786259	0.5343511450381679	0.1649175412293853	0.7796101949025487	0.9340329835082458	
1.710402478360273E12	0.9782608695652174	-6.3478260869565215	3.641304347826087	3912.0879120879117	128.0	128.0	-6.56241912393798	54.960647816735246	48.39822869279727	493.02994525789563	585.3177190205716	-4.625954198473282	7.572519083969465	0.42748091603053434	0.17391304347826086	0.7886056971514243	0.9295352323838081	
1.7104024783798047E12	0.967391304347826	-6.380434782608695	3.5652173913043477	3936.9963369963366	128.0	128.0	-6.532416526367251	54.9381458685572	48.40572934218995	493.0049190527105	585.322118439927	-4.458015267175572	7.633587786259541	0.2900763358778626	0.17841079460269865	0.7811094452773613	0.9250374812593702	
1.7104024783993364E12	0.967391304347826	-6.380434782608695	3.608695652173913	3925.274725274725	128.0	128.0	-6.543162649054843	54.924010029317145	48.3808473802623	493.0355707449402	585.3314221300391	-3.6946564885496183	8.183206106870228	0.564885496183206	0.17241379310344826	0.7871064467766117	0.9385307346326837	
1.7104024784188684E12	0.967391304347826	-6.391304347826087	3.608695652173913	3938.461538461538	128.0	128.0	-6.555279082689176	54.903455365116045	48.34817628242687	493.0472544488018	585.3292584811758	-3.0076335877862594	7.98473282442748	0.8396946564885496	0.17841079460269865	0.7886056971514243	0.9370314842578711	
1.7104024784384001E12	0.9782608695652174	-6.3478260869565215	3.6304347826086953	3938.461538461538	128.0	128.0	-6.5979750869244445	54.91896151530284	48.3209864283784	493.03780651543224	585.3268063457974	-2.717557251908397	7.770992366412213	0.32061068702290074	0.17841079460269865	0.7856071964017991	0.9325337331334332	
1.710402478457932E12	0.9347826086956521	-6.315217391304348	3.6630434782608696	3936.9963369963366	128.0	128.0	-6.597253870636687	54.9199712181057	48.322717347469016	493.03052223092584	585.3314221300391	-3.0534351145038165	7.206106870229007	0.10687022900763359	0.1649175412293853	0.7766116941529235	0.9460269865067465	
1.7104024784774636E12	0.9456521739130435	-6.315217391304348	3.619565217391304	3938.461538461538	128.0	128.0	-6.594224762228103	54.923865786059594	48.32964102383149	493.03167617698625	585.3177911422005	-3.6030534351145036	6.534351145038167	-0.42748091603053434	0.17691154422788605	0.7796101949025487	0.9235382308845577	
1.7104024784969954E12	0.9891304347826086	-6.304347826086956	3.619565217391304	3913.5531135531132	128.0	128.0	-6.5794398283290665	54.91831242064386	48.33887259231479	493.0075154313464	585.3568810649969	-3.4045801526717554	6.427480916030534	-0.6564885496183206	0.15892053973013492	0.775112443778111	0.9325337331334332	
1.710402478516527E12	1.0	-6.282608695652174	3.641304347826087	3910.62271062271	128.0	128.0	-6.398703026616935	55.03760159463902	48.638898568022086	492.94924115529557	585.4636931972138	-3.541984732824427	6.351145038167939	-0.6259541984732824	0.17691154422788605	0.7976011994002998	0.9340329835082458	
1.710402478536059E12	0.9565217391304348	-6.304347826086956	3.5760869565217392	3932.6007326007325	128.0	128.0	-6.584199855828269	55.773891302811066	49.1896914469828	493.01292455350455	584.7039639596896	-3.114503816793893	6.793893129770992	-0.38167938931297707	0.17691154422788605	0.7796101949025487	0.9385307346326837	
1.7104024785555908E12	1.0108695652173914	-6.358695652173913	3.684782608695652	3923.8095238095234	128.0	128.0	-6.764503927767746	55.0790715311851	48.31456760341735	493.01213121558806	585.0633460358794	-3.282442748091603	6.549618320610687	-0.183206106870229	0.1634182908545727	0.7961019490254873	0.9325337331334332	
1.7104024785751226E12	1.0108695652173914	-6.315217391304348	3.3804347826086953	3938.461538461538	128.0	128.0	-6.602302384650992	54.99541044180518	48.39310805715419	493.0152324456254	585.3177911422005	-3.0076335877862594	6.748091603053435	0.24427480916030533	0.17991004497751123	0.7841079460269865	0.9235382308845577	
1.7104024785946543E12	0.967391304347826	-6.304347826086956	3.793478260869565	3936.9963369963366	128.0	128.0	-6.576554963178035	54.973341223399785	48.39678626022175	493.02049732452605	585.3656077820788	-2.610687022900763	6.809160305343511	-0.16793893129770993	0.17841079460269865	0.7856071964017991	0.9370314842578711	
