"sep=	"
Shimmer_6D72_TimestampSync_Unix_CAL	Shimmer_6D72_Accel_LN_X_CAL	Shimmer_6D72_Accel_LN_Y_CAL	Shimmer_6D72_Accel_LN_Z_CAL	Shimmer_6D72_Battery_CAL	Shimmer_6D72_ECG_EMG_Status1_CAL	Shimmer_6D72_ECG_EMG_Status2_CAL	Shimmer_6D72_ECG_LA-RA_24BIT_CAL	Shimmer_6D72_ECG_LL-LA_24BIT_CAL	Shimmer_6D72_ECG_LL-RA_24BIT_CAL	Shimmer_6D72_ECG_RESP_24BIT_CAL	Shimmer_6D72_ECG_Vx-RL_24BIT_CAL	Shimmer_6D72_Gyro_X_CAL	Shimmer_6D72_Gyro_Y_CAL	Shimmer_6D72_Gyro_Z_CAL	Shimmer_6D72_Mag_X_CAL	Shimmer_6D72_Mag_Y_CAL	Shimmer_6D72_Mag_Z_CAL	
ms	m/(s^2)	m/(s^2)	m/(s^2)	mV	no_units	no_units	mV	mV	mV	mV	mV	deg/s	deg/s	deg/s	local_flux	local_flux	local_flux	
1.7104022145094824E12	2.152173913043478	-6.141304347826087	4.684782608695652	3939.9267399267396	128.0	128.0	-7.265893491017043	58.861778838846554	51.59588534782951	493.31771055671106	580.067264445694	-3.6946564885496183	8.900763358778626	1.450381679389313	0.1874062968515742	0.8305847076461769	0.8875562218890555	
1.7104022145290142E12	2.152173913043478	-6.163043478260869	4.684782608695652	3939.9267399267396	128.0	128.0	-7.251685530148213	58.8315598763895	51.57987434624128	493.3292500173152	580.0766402574349	-5.007633587786259	10.061068702290076	1.2061068702290076	0.1664167916041979	0.8245877061469266	0.896551724137931	
1.710402214548546E12	2.152173913043478	-6.173913043478261	4.6521739130434785	3938.461538461538	128.0	128.0	-7.044984942076796	59.06314242638856	52.018157484311764	493.3505980194328	580.1833081463943	-4.244274809160305	9.31297709923664	1.3435114503816794	0.17991004497751123	0.815592203898051	0.9100449775112444	
1.7104022145680776E12	2.130434782608696	-6.206521739130435	4.663043478260869	3938.461538461538	128.0	128.0	-7.127564207025077	59.803182459256945	52.67561825223187	493.32376877352823	579.5616918279758	-3.312977099236641	7.8473282442748085	0.732824427480916	0.191904047976012	0.8350824587706147	0.8995502248875562	
1.7104022145876094E12	2.0652173913043477	-6.163043478260869	4.760869565217392	3923.8095238095234	128.0	128.0	-7.408622194364333	58.948973888036484	51.54035169367215	493.33855370742725	579.8992931722753	-2.7938931297709924	9.465648854961831	0.7786259541984732	0.1874062968515742	0.8350824587706147	0.8875562218890555	
1.710402214607141E12	2.282608695652174	-6.130434782608695	4.532608695652174	3939.9267399267396	128.0	128.0	-7.2647395449566305	58.911254276186746	51.64651473123011	493.3467755731077	580.0786596630406	-4.778625954198473	4.290076335877862	0.12213740458015267	0.17091454272863568	0.8185907046476761	0.9040479760119939	
1.710402214626673E12	2.0217391304347827	-6.239130434782608	4.771739130434782	3939.9267399267396	128.0	128.0	-7.249233394769836	58.910605181527764	51.661371786757925	493.36127202049164	580.1196968698141	-5.923664122137405	11.435114503816793	0.7022900763358778	0.17241379310344826	0.8230884557721139	0.8875562218890555	
1.7104022146462048E12	2.1956521739130435	-6.130434782608695	4.608695652173913	3931.135531135531	128.0	128.0	-7.2404345560591885	58.90555666751345	51.66512211145427	493.3464149649638	580.1331836143952	-1.3435114503816794	7.435114503816793	0.6106870229007634	0.1649175412293853	0.8275862068965517	0.9130434782608695	
1.7104022146657366E12	2.1956521739130435	-6.032608695652174	4.630434782608695	3939.9267399267396	128.0	128.0	-7.236756352991623	58.90865789755081	51.67190154455919	493.35131923572055	580.1457327778021	-2.519083969465649	9.267175572519083	0.7938931297709924	0.19040479760119938	0.8215892053973013	0.8935532233883058	
1.7104022146852683E12	2.0869565217391304	-6.163043478260869	4.619565217391305	3939.9267399267396	128.0	128.0	-7.210071350344581	58.90166209955956	51.69159074921498	493.34295312678256	580.1637631849961	-8.320610687022901	8.732824427480915	1.0687022900763359	0.17991004497751123	0.8305847076461769	0.9055472263868065	
1.7104022147048E12	2.0978260869565215	-6.25	4.5978260869565215	3938.461538461538	128.0	128.0	-7.187208794022656	58.90418635656671	51.71697756254406	493.32607666564905	580.1841014843109	-7.66412213740458	6.564885496183206	0.8396946564885496	0.18440779610194902	0.8275862068965517	0.9100449775112444	
1.7104022147243318E12	2.1956521739130435	-6.25	4.619565217391305	3939.9267399267396	128.0	128.0	-7.142277019295338	58.901878464445886	51.75960144515055	493.30494502841776	580.2239847450238	-3.6488549618320607	6.3206106870229	0.7633587786259541	0.1934032983508246	0.8290854572713643	0.9115442278860569	
1.7104022147438635E12	2.1739130434782608	-6.163043478260869	4.608695652173913	3913.5531135531132	128.0	128.0	-7.1008792043780335	58.91204761410327	51.81116840972524	493.3262209089066	580.2506697476709	-1.129770992366412	7.32824427480916	0.4580152671755725	0.17991004497751123	0.8305847076461769	0.8950524737631184	
1.7104022147633953E12	2.119565217391304	-6.1521739130434785	4.532608695652174	3939.9267399267396	128.0	128.0	-7.03582549522227	58.922288885389435	51.886463390167165	493.33090881477705	580.3147137540238	-3.2519083969465647	6.854961832061068	0.3053435114503817	0.18440779610194902	0.8275862068965517	0.9205397301349325	
1.710402214782927E12	2.108695652173913	-6.119565217391304	4.554347826086956	3939.9267399267396	128.0	128.0	-6.988946436518006	58.92906831849436	51.94012188197635	493.3078298935688	580.3289217148927	-3.450381679389313	6.778625954198473	0.2595419847328244	0.191904047976012	0.8275862068965517	0.8845577211394302	
1.710402214802459E12	2.119565217391304	-6.130434782608695	4.630434782608695	3931.135531135531	128.0	128.0	-6.966228123453632	58.93144833224396	51.96522020879033	493.32066754349086	580.3305805123545	-3.4045801526717554	7.190839694656488	0.2900763358778626	0.18590704647676162	0.8245877061469266	0.8905547226386806	
1.7104022148219907E12	2.152173913043478	-6.163043478260869	4.5978260869565215	3941.391941391941	128.0	128.0	-7.031353954238171	58.96310972727653	51.93175577303836	493.33148578780725	580.2446115308537	-3.4045801526717554	6.1679389312977095	0.8396946564885496	0.19940029985007496	0.8230884557721139	0.9310344827586207	
1.7104022148415225E12	2.130434782608696	-6.173913043478261	4.608695652173913	3939.9267399267396	128.0	128.0	-7.10419679930172	58.91897129046575	51.81477449116403	493.3417270590934	580.1724177804492	-2.595419847328244	6.8396946564885495	1.099236641221374	0.17841079460269865	0.8215892053973013	0.9115442278860569	
1.7104022148610542E12	2.130434782608696	-6.119565217391304	4.673913043478261	3938.461538461538	128.0	128.0	-7.189083956370826	58.85795639252143	51.66887243615061	493.3550695604169	580.1080852875812	-1.8625954198473282	7.0534351145038165	1.0534351145038168	0.17841079460269865	0.8290854572713643	0.9190404797601199	
1.710402214880586E12	2.130434782608696	-6.141304347826087	4.608695652173913	3939.9267399267396	128.0	128.0	-7.213893796669698	58.835598687600935	51.62170489093124	493.3369670315942	580.0754863113744	-2.9923664122137406	6.885496183206107	0.8091603053435115	0.18590704647676162	0.8185907046476761	0.9010494752623688	
1.7104022149001177E12	2.152173913043478	-6.239130434782608	4.532608695652174	3916.4835164835163	128.0	128.0	-7.225216892387497	58.826511362375186	51.60129446998769	493.3508865059479	580.0874585017513	-3.679389312977099	6.549618320610687	0.8549618320610687	0.18440779610194902	0.8050974512743628	0.8995502248875562	
1.7104022149196494E12	2.0869565217391304	-6.195652173913043	4.782608695652174	3913.5531135531132	128.0	128.0	-7.2376939341657085	58.82333801070905	51.585644076543346	493.35305015481117	580.0840687851988	-0.41221374045801523	9.206106870229007	0.9618320610687022	0.17691154422788605	0.8230884557721139	0.9175412293853074	
1.7104022149391812E12	2.1956521739130435	-6.130434782608695	4.543478260869565	3938.461538461538	128.0	128.0	-7.232501176893852	58.81410644222575	51.5816052653319	493.3446840458732	580.0838524203125	-0.8702290076335878	4.67175572519084	0.7175572519083969	0.17241379310344826	0.8275862068965517	0.8950524737631184	
1.710402214958713E12	2.0978260869565215	-6.130434782608695	4.576086956521739	3929.6703296703295	128.0	128.0	-7.227019933106892	58.81035611752941	51.58333618442252	493.32434574655844	580.0850784880017	-2.8244274809160306	7.7251908396946565	1.2213740458015268	0.17091454272863568	0.8185907046476761	0.9250374812593702	
1.7104022149782449E12	2.119565217391304	-6.119565217391304	4.717391304347826	3939.9267399267396	128.0	128.0	-7.224712040986066	58.81100521218839	51.58629317120233	493.323840895157	580.0666153510351	-2.427480916030534	6.854961832061068	0.916030534351145	0.18440779610194902	0.8125937031484257	0.9205397301349325	
1.7104022149977766E12	2.141304347826087	-6.195652173913043	4.717391304347826	3938.461538461538	128.0	128.0	-7.225216892387497	58.79867241366773	51.57345552128024	493.31655661065065	580.0702935541026	-2.931297709923664	5.312977099236641	0.7022900763358778	0.17691154422788605	0.8230884557721139	0.8950524737631184	
1.7104022150173083E12	2.1956521739130435	-6.163043478260869	4.58695652173913	3938.461538461538	128.0	128.0	-7.23098662268956	58.796725129690785	51.56573850700123	493.319657840688	580.0620716884222	-1.1603053435114503	4.961832061068702	0.366412213740458	0.1829085457271364	0.8290854572713643	0.8905547226386806	
1.71040221503684E12	2.119565217391304	-6.141304347826087	4.576086956521739	3939.9267399267396	128.0	128.0	-7.224062946327084	58.786628101662174	51.56256515533509	493.3038632039861	580.0705099189889	-1.5572519083969465	7.435114503816793	0.3511450381679389	0.1934032983508246	0.8290854572713643	0.9115442278860569	
1.7104022150563718E12	2.141304347826087	-6.130434782608695	4.630434782608695	3929.6703296703295	128.0	128.0	-7.229399946856493	58.781291101132766	51.55189115427628	493.3304039633756	580.0561577148626	-1.7862595419847327	6.259541984732824	1.0534351145038168	0.1664167916041979	0.8365817091454273	0.9040479760119939	
1.7104022150759036E12	2.130434782608696	-6.1521739130434785	4.630434782608695	3912.0879120879117	128.0	128.0	-7.235674528559986	58.77263650567967	51.53696197711969	493.3221099760664	580.0544989174008	-1.6335877862595418	6.564885496183206	0.9923664122137404	0.1829085457271364	0.8245877061469266	0.896551724137931	
1.7104022150954353E12	2.130434782608696	-6.1521739130434785	4.684782608695652	3938.461538461538	128.0	128.0	-7.234809069014677	58.77126619473293	51.53645712571826	493.3450446540171	580.0516140522498	-1.5877862595419847	6.763358778625954	1.3435114503816794	0.18440779610194902	0.8350824587706147	0.8920539730134932	
1.710402215114967E12	2.1630434782608696	-6.130434782608695	4.576086956521739	3929.6703296703295	128.0	128.0	-7.234736947385901	58.75727459875043	51.52253765136453	493.3509586275767	580.0559413499763	-1.6793893129770991	6.183206106870228	1.2213740458015268	0.18440779610194902	0.815592203898051	0.9025487256371814	
1.7104022151344988E12	2.1739130434782608	-6.0978260869565215	4.608695652173913	3939.9267399267396	128.0	128.0	-7.238631515339794	58.752009719849795	51.513378204510005	493.33328882852663	580.0599801611877	-0.47328244274809156	6.549618320610687	0.9465648854961831	0.17841079460269865	0.8140929535232384	0.8935532233883058	
1.7104022151540308E12	2.1739130434782608	-6.0978260869565215	4.641304347826087	3939.9267399267396	128.0	128.0	-7.2277411493946495	58.741047232275875	51.51330608288123	493.332207004095	580.0483685789548	-0.183206106870229	6.6106870229007635	1.114503816793893	0.19040479760119938	0.8320839580209894	0.9010494752623688	
1.7104022151735625E12	2.1630434782608696	-6.065217391304348	4.576086956521739	3939.9267399267396	128.0	128.0	-7.245410948444719	58.74847576003979	51.50306481159507	493.33235124735256	580.0832754472823	0.366412213740458	5.358778625954198	0.4427480916030534	0.191904047976012	0.8200899550224887	0.9025487256371814	
1.7104022151930942E12	2.108695652173913	-6.108695652173913	4.673913043478261	3938.461538461538	128.0	128.0	-7.222981121895447	58.733330217996865	51.51034909610142	493.344107072843	580.0757026762608	-0.15267175572519084	4.977099236641221	0.9618320610687022	0.19490254872563717	0.8350824587706147	0.8950524737631184	
1.710402215212626E12	2.141304347826087	-6.141304347826087	4.684782608695652	3916.4835164835163	128.0	128.0	-7.207979823110083	58.76564070768842	51.55766088457834	493.33357731504174	580.0680577836106	-0.13740458015267176	3.5725190839694654	0.6412213740458015	0.17691154422788605	0.8275862068965517	0.8920539730134932	
1.7104022152321577E12	2.1739130434782608	-6.163043478260869	4.717391304347826	3941.391941391941	128.0	128.0	-7.171269914063205	58.755255193144706	51.5839852790815	493.34158281583586	580.0603407693316	0.07633587786259542	3.480916030534351	0.564885496183206	0.18590704647676162	0.8365817091454273	0.9145427286356821	
1.7104022152516895E12	2.1956521739130435	-6.173913043478261	4.684782608695652	3939.9267399267396	128.0	128.0	-7.171414157320757	58.72705563629337	51.55564147897262	493.3085511098565	580.0826984742521	0.0	2.1221374045801524	0.22900763358778625	0.18590704647676162	0.8290854572713643	0.9010494752623688	
1.7104022152712212E12	2.1739130434782608	-6.217391304347826	4.706521739130435	3929.6703296703295	128.0	128.0	-7.185045145159382	58.68104203713442	51.49599689197504	493.30819050171266	580.0964737053482	1.0381679389312977	3.099236641221374	0.7022900763358778	0.1874062968515742	0.8380809595202399	0.8995502248875562	
1.710402215290753E12	2.1630434782608696	-6.173913043478261	4.706521739130435	3939.9267399267396	128.0	128.0	-7.210504080117236	58.70484217463043	51.49433809451319	493.3092002045155	580.0940215699699	2.198473282442748	3.6488549618320607	0.732824427480916	0.1829085457271364	0.8185907046476761	0.896551724137931	
1.7104022153102847E12	2.1956521739130435	-6.0978260869565215	4.793478260869565	3939.9267399267396	128.0	128.0	-7.211513782920097	58.708664620955545	51.49715083803545	493.29383829758626	580.0966900702346	1.5572519083969465	4.870229007633587	0.916030534351145	0.17991004497751123	0.8230884557721139	0.9025487256371814	
1.7104022153298167E12	2.1847826086956523	-6.08695652173913	4.8478260869565215	3938.461538461538	128.0	128.0	-7.200479173717401	58.71306404031087	51.51258486659347	493.3194414758017	580.0928676239095	0.2900763358778626	5.603053435114504	1.3740458015267174	0.1634182908545727	0.8185907046476761	0.896551724137931	
1.7104022153493484E12	2.1847826086956523	-6.065217391304348	4.869565217391305	3938.461538461538	128.0	128.0	-7.072607525897924	58.65926130524413	51.58665377934621	493.29924741974446	580.2548528021399	-0.061068702290076333	7.083969465648854	1.9541984732824427	0.1934032983508246	0.8245877061469266	0.8935532233883058	
1.7104022153688801E12	2.1630434782608696	-6.043478260869565	4.83695652173913	3932.6007326007325	128.0	128.0	-6.993201612615778	59.400671649059255	52.40747003644348	493.31597963762044	579.953095907342	-1.450381679389313	7.7251908396946565	2.1068702290076335	0.17691154422788605	0.8125937031484257	0.8950524737631184	
1.7104022153884119E12	2.1956521739130435	-6.054347826086956	4.891304347826087	3939.9267399267396	128.0	128.0	-7.313277401122738	59.45295982992171	52.13968242879897	493.29665104110853	579.5819580056618	-2.1221374045801524	6.824427480916031	2.091603053435114	0.1874062968515742	0.8275862068965517	0.8950524737631184	
1.7104022154079436E12	2.130434782608696	-6.032608695652174	4.793478260869565	3939.9267399267396	128.0	128.0	-7.289044533854072	58.77133831636171	51.48229378250763	493.29953590625956	580.0200969004746	-3.5572519083969465	7.66412213740458	2.1526717557251906	0.17991004497751123	0.8305847076461769	0.9025487256371814	
1.7104022154274753E12	2.141304347826087	-6.108695652173913	4.793478260869565	3926.7399267399264	128.0	128.0	-7.194853686672889	58.777901384580304	51.58304769790742	493.31323901572694	580.1036858682259	-7.9541984732824424	5.190839694656488	1.9236641221374045	0.1874062968515742	0.8305847076461769	0.9025487256371814	
1.710402215447007E12	2.0217391304347827	-6.1521739130434785	4.9021739130434785	3912.0879120879117	128.0	128.0	-7.176246306448735	58.77133831636171	51.595092009912975	493.32961062545905	580.1408285070454	-4.885496183206107	10.473282442748092	1.7404580152671756	0.18590704647676162	0.8365817091454273	0.896551724137931	
1.7104022154665388E12	2.282608695652174	-6.0978260869565215	4.663043478260869	3939.9267399267396	128.0	128.0	-7.1722074952372905	58.77234801916457	51.60014052392728	493.33653430182153	580.1436412505676	-1.9389312977099236	7.358778625954198	2.1221374045801524	0.19940029985007496	0.8125937031484257	0.9025487256371814	
1.7104022154860706E12	2.141304347826087	-6.076086956521739	4.804347826086956	3938.461538461538	128.0	128.0	-7.153816479899464	58.78381535813992	51.62999887824046	493.36083929071896	580.1563346572322	-5.480916030534351	10.564885496183205	2.030534351145038	0.16941529235382308	0.8530734632683658	0.8995502248875562	
1.7104022155056023E12	2.0652173913043477	-6.163043478260869	4.684782608695652	3939.9267399267396	128.0	128.0	-7.139752762288185	58.797085737834664	51.65733297554648	493.355358046932	580.1556855625732	-9.969465648854962	7.908396946564885	2.1526717557251906	0.18590704647676162	0.8245877061469266	0.8905547226386806	
1.7104022155251343E12	2.0869565217391304	-6.206521739130435	4.782608695652174	3916.4835164835163	128.0	128.0	-7.101095569264361	58.79182085893403	51.69072528966967	493.3378324911395	580.2014106752171	-7.206106870229007	7.267175572519084	1.6946564885496183	0.18440779610194902	0.8200899550224887	0.9100449775112444	
1.710402215544666E12	2.152173913043478	-6.217391304347826	4.826086956521739	3939.9267399267396	128.0	128.0	-7.070588120292202	58.7981675622663	51.7275794419741	493.3288894091713	580.230042961841	-4.702290076335878	6.381679389312977	1.2519083969465647	0.18590704647676162	0.8245877061469266	0.9040479760119939	
1.7104022155641978E12	2.141304347826087	-6.184782608695652	4.739130434782608	3941.391941391941	128.0	128.0	-7.025367859049781	58.80610094143164	51.78073308238186	493.2960740680783	580.2656710464563	-3.480916030534351	6.946564885496183	0.9770992366412213	0.18440779610194902	0.815592203898051	0.8995502248875562	
1.7104022155837295E12	2.119565217391304	-6.141304347826087	4.695652173913043	3926.7399267399264	128.0	128.0	-6.974594232391624	58.828386524723356	51.85379229233173	493.32340816538436	580.3280562553473	-4.2748091603053435	7.923664122137405	0.8549618320610687	0.16941529235382308	0.8230884557721139	0.8995502248875562	
1.7104022156032612E12	2.108695652173913	-6.076086956521739	4.75	3939.9267399267396	128.0	128.0	-6.941995256184967	58.83624778225992	51.89425252607495	493.3539877359853	580.333970228907	-4.381679389312977	7.694656488549618	0.7022900763358778	0.17241379310344826	0.8125937031484257	0.8920539730134932	
1.710402215622793E12	2.0869565217391304	-6.0978260869565215	4.826086956521739	3939.9267399267396	128.0	128.0	-6.969473596748543	58.865601285171664	51.89612768842312	493.3286009226562	580.29019240024	-4.748091603053435	7.32824427480916	0.9007633587786259	0.1934032983508246	0.8215892053973013	0.8830584707646176	
1.7104022156423247E12	2.141304347826087	-6.184782608695652	4.760869565217392	3939.9267399267396	128.0	128.0	-7.03669095476758	58.83761809320666	51.80092713843908	493.3308366931482	580.2155465144571	-6.061068702290076	6.671755725190839	1.2061068702290076	0.18440779610194902	0.8350824587706147	0.8995502248875562	
1.7104022156618564E12	2.1956521739130435	-6.217391304347826	4.728260869565217	3939.9267399267396	128.0	128.0	-7.147325533309643	58.78720507469238	51.63987954138274	493.3082626233414	580.151574629733	-5.603053435114504	6.824427480916031	1.129770992366412	0.1829085457271364	0.8320839580209894	0.8935532233883058	
1.7104022156813882E12	2.1956521739130435	-6.141304347826087	4.782608695652174	3916.4835164835163	128.0	128.0	-7.1711977924344295	58.757851571780634	51.58665377934621	493.28583279679214	580.1332557360239	-4.259541984732825	7.694656488549618	0.5038167938931297	0.18590704647676162	0.8245877061469266	0.9040479760119939	
1.7104022157009202E12	2.152173913043478	-6.141304347826087	4.673913043478261	3941.391941391941	128.0	128.0	-7.194853686672889	58.74941334121387	51.55455965454098	493.29441527061647	580.1312363304182	-5.557251908396946	7.251908396946565	0.0	0.1829085457271364	0.8110944527736131	0.9040479760119939	
1.710402215720452E12	2.108695652173913	-6.206521739130435	4.793478260869565	3939.9267399267396	128.0	128.0	-7.220456864888295	58.7639097885978	51.54345292370951	493.328023949626	580.1302266276153	-6.045801526717557	7.083969465648854	0.42748091603053434	0.1829085457271364	0.8185907046476761	0.896551724137931	
1.7104022157399836E12	2.152173913043478	-6.0978260869565215	4.739130434782608	3925.274725274725	128.0	128.0	-7.2136774317833705	58.76499161302944	51.55131418124607	493.3169893404233	580.1332557360239	-3.847328244274809	7.114503816793893	0.4580152671755725	0.1634182908545727	0.8215892053973013	0.9040479760119939	
1.7104022157595154E12	2.141304347826087	-6.141304347826087	4.58695652173913	3939.9267399267396	128.0	128.0	-7.220384743259519	58.77162680287681	51.551242059617294	493.3417270590934	580.1419824531058	-4.99236641221374	7.145038167938931	0.7938931297709924	0.18440779610194902	0.8350824587706147	0.9025487256371814	
1.710402215779047E12	2.108695652173913	-6.0978260869565215	4.641304347826087	3938.461538461538	128.0	128.0	-7.219014432312779	58.76369342371147	51.5446789913987	493.31828752974127	580.1406842637879	-3.709923664122137	7.755725190839694	0.7633587786259541	0.17241379310344826	0.8305847076461769	0.9025487256371814	
1.7104022157985789E12	2.0978260869565215	-6.08695652173913	4.717391304347826	3938.461538461538	128.0	128.0	-7.227452662879546	58.76455888325678	51.53710622037724	493.27068725474925	580.144795196628	-4.091603053435114	7.358778625954198	1.2213740458015268	0.17391304347826086	0.8215892053973013	0.9040479760119939	
1.7104022158181106E12	2.130434782608696	-6.1521739130434785	4.760869565217392	3938.461538461538	128.0	128.0	-7.215841080646644	58.748908489812436	51.533067409165795	493.2653502542198	580.1365733309476	-4.442748091603053	6.763358778625954	1.1755725190839694	0.17841079460269865	0.8245877061469266	0.896551724137931	
1.7104022158376423E12	2.1630434782608696	-6.206521739130435	4.695652173913043	3915.0183150183148	128.0	128.0	-7.214326526442353	58.73311385311054	51.51878732666819	493.31143597500756	580.1253944784874	-4.1679389312977095	6.213740458015267	1.0076335877862594	0.1664167916041979	0.8290854572713643	0.9145427286356821	
1.710402215857174E12	2.152173913043478	-6.195652173913043	4.760869565217392	3913.5531135531132	128.0	128.0	-7.221322324433604	58.72395440625601	51.50263208182241	493.2913861622079	580.1372945472353	-3.480916030534351	7.679389312977099	0.8244274809160305	0.17841079460269865	0.8215892053973013	0.8905547226386806	
1.710402215876706E12	2.130434782608696	-6.173913043478261	4.663043478260869	3939.9267399267396	128.0	128.0	-7.216562296934402	58.722872581824376	51.50631028488998	493.2822267153534	580.1296496545851	-4.030534351145038	6.641221374045801	0.916030534351145	0.1829085457271364	0.8290854572713643	0.8905547226386806	
1.7104022158962378E12	2.119565217391304	-6.1521739130434785	4.717391304347826	3923.8095238095234	128.0	128.0	-7.231707838977318	58.72893079864154	51.49722295966423	493.3244178681872	580.1403957772727	-3.877862595419847	7.801526717557252	1.0229007633587786	0.18440779610194902	0.8200899550224887	0.8875562218890555	
1.7104022159157695E12	2.0869565217391304	-6.1521739130434785	4.684782608695652	3941.391941391941	128.0	128.0	-7.225577500531376	58.72481986580132	51.49924236526995	493.34035674814663	580.1427036693935	-4.106870229007633	7.694656488549618	1.083969465648855	0.17841079460269865	0.8245877061469266	0.9010494752623688	
1.7104022159353013E12	2.0869565217391304	-6.163043478260869	4.673913043478261	3939.9267399267396	128.0	128.0	-7.225577500531376	58.723738041369685	51.49816054083831	493.3170614620521	580.1317411818196	-4.702290076335878	7.206106870229007	1.4198473282442747	0.17991004497751123	0.8350824587706147	0.8875562218890555	
1.710402215954833E12	2.119565217391304	-6.163043478260869	4.684782608695652	3936.9963369963366	128.0	128.0	-7.229183581970165	58.72330531159703	51.49412172962686	493.3187202595139	580.1254666001162	-3.7404580152671754	7.450381679389313	1.4045801526717556	0.17691154422788605	0.8275862068965517	0.8950524737631184	
1.7104022159743647E12	2.0760869565217392	-6.1521739130434785	4.663043478260869	3941.391941391941	128.0	128.0	-7.239352731627552	58.7293635284142	51.49001079678664	493.30206016326673	580.1340490739404	-3.480916030534351	7.435114503816793	1.2213740458015268	0.16941529235382308	0.8275862068965517	0.9100449775112444	
1.7104022159938965E12	2.0978260869565215	-6.1521739130434785	4.663043478260869	3916.4835164835163	128.0	128.0	-7.233510879696713	58.72842594724011	51.4949150675434	493.29982439277467	580.1236635593967	-3.969465648854962	6.99236641221374	0.7175572519083969	0.19790104947526235	0.8245877061469266	0.9115442278860569	
1.7104022160134282E12	2.108695652173913	-6.1521739130434785	4.6521739130434785	3939.9267399267396	128.0	128.0	-7.231924203863645	58.72813746072501	51.49621325686137	493.29737225739626	580.1220047619349	-3.3435114503816794	6.99236641221374	0.8854961832061068	0.17241379310344826	0.8200899550224887	0.8875562218890555	
1.71040221603296E12	2.0760869565217392	-6.1521739130434785	4.684782608695652	3939.9267399267396	128.0	128.0	-7.21728351322216	58.78432020954135	51.56703669631919	493.28915039171585	580.1227980998514	-3.49618320610687	6.763358778625954	0.9007633587786259	0.17091454272863568	0.8215892053973013	0.9010494752623688	
1.710402216052492E12	2.108695652173913	-6.173913043478261	4.684782608695652	3923.8095238095234	128.0	128.0	-7.199325227656988	58.76542434280209	51.56609911514511	493.26347509187167	580.1246011405708	-3.2671755725190836	6.5038167938931295	0.732824427480916	0.17091454272863568	0.8245877061469266	0.9010494752623688	
1.7104022160720237E12	2.108695652173913	-6.184782608695652	4.673913043478261	3941.391941391941	128.0	128.0	-7.1845402937579514	58.73080596098971	51.546265667231765	493.28943887823095	580.1256829650025	-3.1908396946564883	6.641221374045801	0.9465648854961831	0.18590704647676162	0.8440779610194902	0.9010494752623688	
1.7104022160915554E12	2.0978260869565215	-6.184782608695652	4.684782608695652	3941.391941391941	128.0	128.0	-7.208484674511514	58.71392949985618	51.50544482534467	493.3082626233414	580.1220768835636	-3.16030534351145	6.717557251908397	0.6564885496183206	0.16941529235382308	0.8350824587706147	0.8950524737631184	
1.7104022161110872E12	2.108695652173913	-6.173913043478261	4.706521739130435	3939.9267399267396	128.0	128.0	-7.2505315840878	58.725108352316425	51.47457676822862	493.3110753668637	580.1134944097394	-3.0381679389312977	6.549618320610687	0.8854961832061068	0.19040479760119938	0.8290854572713643	0.9085457271364318	
1.710402216130619E12	2.152173913043478	-6.141304347826087	4.684782608695652	3941.391941391941	128.0	128.0	-7.250387340830248	58.72763260932358	51.47724526849333	493.30819050171266	580.1031088951956	-2.8244274809160306	6.671755725190839	0.916030534351145	0.1934032983508246	0.8245877061469266	0.9010494752623688	
1.7104022161501506E12	2.119565217391304	-6.141304347826087	4.673913043478261	3938.461538461538	128.0	128.0	-7.250170975943921	58.73138293401992	51.481211958075995	493.3229754356117	580.1143598692846	-2.8244274809160306	6.183206106870228	0.7633587786259541	0.17391304347826086	0.8290854572713643	0.8905547226386806	
1.7104022161696824E12	2.130434782608696	-6.1521739130434785	4.684782608695652	3939.9267399267396	128.0	128.0	-7.159658331830303	58.68414326717178	51.524484935341476	493.29794923042647	580.2436739496796	-2.8244274809160306	6.870229007633587	0.5801526717557252	0.19040479760119938	0.8110944527736131	0.9040479760119939	
1.710402216189214E12	2.0978260869565215	-6.163043478260869	4.673913043478261	3939.9267399267396	128.0	128.0	-7.046211009765984	59.211063887007704	52.16485287724172	493.26116719975084	580.0413006593348	-3.0534351145038165	7.022900763358779	0.5190839694656488	0.17241379310344826	0.8275862068965517	0.8995502248875562	
1.7104022162087458E12	2.130434782608696	-6.163043478260869	4.739130434782608	3922.344322344322	128.0	128.0	-7.42254166871806	59.15791024659995	51.735368577881886	493.22351970952985	579.6046763187261	-1.7862595419847327	5.969465648854961	0.5038167938931297	0.18590704647676162	0.8215892053973013	0.896551724137931	
1.7104022162282778E12	2.141304347826087	-6.108695652173913	4.510869565217392	3939.9267399267396	128.0	128.0	-7.367080136189477	58.822761037678845	51.455680901489366	493.23729494062604	579.9982440469556	-1.5419847328244274	7.099236641221374	0.5190839694656488	0.17991004497751123	0.8380809595202399	0.8950524737631184	
1.7104022162478096E12	2.0217391304347827	-6.141304347826087	4.75	3936.9963369963366	128.0	128.0	-7.221250202804828	58.80112454904611	51.57987434624128	493.2636193351292	580.1429200342799	-4.641221374045801	4.442748091603053	0.564885496183206	0.17841079460269865	0.8395802098950524	0.9040479760119939	
1.7104022162673413E12	2.0543478260869565	-6.239130434782608	4.728260869565217	3938.461538461538	128.0	128.0	-7.223846581440757	58.80112454904611	51.577277967605355	493.29953590625956	580.1572722384062	-4.687022900763359	6.99236641221374	0.549618320610687	0.17091454272863568	0.8290854572713643	0.8935532233883058	
1.710402216286873E12	2.1630434782608696	-6.065217391304348	4.684782608695652	3939.9267399267396	128.0	128.0	-7.21317258038194	58.794994210600166	51.58182163021823	493.32874516591374	580.1720571723052	1.7099236641221374	6.229007633587786	0.8091603053435115	0.17391304347826086	0.8245877061469266	0.8905547226386806	
1.7104022163064048E12	2.130434782608696	-6.08695652173913	4.6521739130434785	3916.4835164835163	128.0	128.0	-7.1937718622412525	58.794994210600166	51.60122234835892	493.35716108765143	580.1877075657496	-2.4580152671755724	7.862595419847328	1.2366412213740459	0.1874062968515742	0.815592203898051	0.8875562218890555	
1.7104022163259365E12	2.0760869565217392	-6.173913043478261	4.58695652173913	3939.9267399267396	128.0	128.0	-7.178409955312008	58.80148515718999	51.62307520187798	493.35160772223566	580.205593729686	-6.748091603053435	6.625954198473282	1.1755725190839694	0.20089955022488756	0.8065967016491754	0.9010494752623688	
1.7104022163454683E12	2.108695652173913	-6.206521739130435	4.728260869565217	3941.391941391941	128.0	128.0	-7.145161884446369	58.817279793891885	51.67211790944552	493.35946897977226	580.2436739496796	-4.885496183206107	6.351145038167939	1.1603053435114503	0.1829085457271364	0.8365817091454273	0.9010494752623688	
1.710402216365E12	2.1630434782608696	-6.217391304347826	4.771739130434782	3922.344322344322	128.0	128.0	-7.1166738410799315	58.81223127987758	51.69555743879765	493.3462707217063	580.2642286138807	-3.068702290076336	6.152671755725191	0.9007633587786259	0.1829085457271364	0.8215892053973013	0.9190404797601199	
1.7104022163845317E12	2.1739130434782608	-6.239130434782608	4.695652173913043	3941.391941391941	128.0	128.0	-7.0600583624909365	58.825645902829876	51.76558754033894	493.3092723261443	580.333321134248	-2.1068702290076335	6.412213740458015	0.6412213740458015	0.18590704647676162	0.8065967016491754	0.9040479760119939	
1.7104022164040637E12	2.119565217391304	-6.163043478260869	4.673913043478261	3939.9267399267396	128.0	128.0	-7.000558018750909	58.82167921324721	51.8211211944963	493.31612388087797	580.360655231554	-2.595419847328244	7.2824427480916025	0.4580152671755725	0.17991004497751123	0.8305847076461769	0.9025487256371814	
1.7104022164235955E12	2.141304347826087	-6.0978260869565215	4.717391304347826	3939.9267399267396	128.0	128.0	-6.960602636409121	58.85074422964385	51.89014159323473	493.3068201907659	580.3850323420802	-1.984732824427481	6.8396946564885495	0.47328244274809156	0.17841079460269865	0.8140929535232384	0.9190404797601199	
1.7104022164431272E12	2.108695652173913	-6.108695652173913	4.695652173913043	3939.9267399267396	128.0	128.0	-6.980075476178584	58.87555406994272	51.89547859376414	493.30732504216735	580.3442836218219	-4.015267175572519	7.312977099236641	0.7786259541984732	0.1649175412293853	0.8350824587706147	0.9055472263868065	
1.710402216462659E12	2.141304347826087	-6.130434782608695	4.728260869565217	3916.4835164835163	128.0	128.0	-7.038926725259629	58.871731623617606	51.83280489835798	493.3172778269384	580.2620649650174	-3.5572519083969465	7.603053435114504	0.9770992366412213	0.17241379310344826	0.8125937031484257	0.9175412293853074	
1.7104022164821907E12	2.141304347826087	-6.1521739130434785	4.75	3939.9267399267396	128.0	128.0	-7.159225602057648	58.80422577908347	51.64500017702582	493.31273416432555	580.1667922934047	-4.717557251908397	8.687022900763358	1.1603053435114503	0.17391304347826086	0.8320839580209894	0.9010494752623688	
1.7104022165017224E12	2.1630434782608696	-6.1521739130434785	4.728260869565217	3939.9267399267396	128.0	128.0	-7.207907701481307	58.77278074893722	51.56487304745592	493.3089117180004	580.12936116807	-4.091603053435114	7.816793893129771	1.2061068702290076	0.18440779610194902	0.8275862068965517	0.8950524737631184	
1.7104022165212542E12	2.152173913043478	-6.1521739130434785	4.706521739130435	3920.879120879121	128.0	128.0	-7.2449060970432875	58.755255193144706	51.51034909610142	493.2993195413732	580.1277023706082	-4.213740458015267	8.412213740458014	0.8244274809160305	0.1664167916041979	0.8245877061469266	0.9145427286356821	
1.710402216540786E12	2.141304347826087	-6.228260869565217	4.641304347826087	3941.391941391941	128.0	128.0	-7.255003125071899	58.74854788166856	51.493544756596656	493.30552200144797	580.1244568973133	-5.938931297709924	8.351145038167939	1.297709923664122	0.17691154422788605	0.8230884557721139	0.8950524737631184	
1.7104022165603176E12	2.0978260869565215	-6.141304347826087	4.891304347826087	3941.391941391941	128.0	128.0	-7.266326220789698	58.763765545340256	51.497439324550555	493.30941656940183	580.1309478439031	-3.9389312977099236	11.007633587786259	1.1603053435114503	0.1829085457271364	0.8215892053973013	0.9040479760119939	
1.7104022165798496E12	2.2282608695652173	-6.141304347826087	4.565217391304348	3938.461538461538	128.0	128.0	-7.262792260979684	58.76621768071863	51.503425419738946	493.308406866599	580.128062978752	-5.343511450381679	6.793893129770992	0.8396946564885496	0.17391304347826086	0.8320839580209894	0.9010494752623688	
1.7104022165993813E12	2.043478260869565	-6.163043478260869	4.641304347826087	3923.8095238095234	128.0	128.0	-7.263657720524994	58.764486761628014	51.50082904110302	493.31417659690106	580.1205623293594	-5.847328244274809	11.908396946564885	1.2519083969465647	0.17991004497751123	0.8275862068965517	0.9100449775112444	
1.710402216618913E12	2.0978260869565215	-6.228260869565217	4.630434782608695	3916.4835164835163	128.0	128.0	-7.283491168438336	58.770833464960276	51.48734229652194	493.33256761223885	580.1286399517822	-4.534351145038168	9.16030534351145	1.3282442748091603	0.19040479760119938	0.8215892053973013	0.9040479760119939	
1.7104022166384448E12	2.119565217391304	-6.25	4.6521739130434785	3935.531135531135	128.0	128.0	-7.277721438136273	58.75814005829574	51.48041862015946	493.33711127485174	580.120995059132	-5.786259541984733	7.83206106870229	1.083969465648855	0.17991004497751123	0.8095952023988006	0.8995502248875562	
1.7104022166579766E12	2.108695652173913	-6.184782608695652	4.706521739130435	3938.461538461538	128.0	128.0	-7.284500871241197	58.75691399060655	51.47241311936535	493.31201294803776	580.1383042500382	-3.1755725190839694	8.51908396946565	1.2671755725190839	0.18440779610194902	0.8125937031484257	0.9055472263868065	
1.7104022166775083E12	2.152173913043478	-6.271739130434782	4.58695652173913	3919.4139194139193	128.0	128.0	-7.275774154159326	58.74631211117651	51.47053795701718	493.3172057053096	580.1223653700788	-3.9541984732824424	7.6183206106870225	1.6946564885496183	0.17091454272863568	0.8320839580209894	0.9040479760119939	
1.71040221669704E12	2.1630434782608696	-6.282608695652174	4.706521739130435	3941.391941391941	128.0	128.0	-7.286953006619574	58.7344120424285	51.447459035808926	493.29311708129853	580.1184708021249	-4.061068702290076	8.045801526717558	1.8931297709923662	0.18440779610194902	0.8200899550224887	0.9100449775112444	
1.7104022167165718E12	2.1739130434782608	-6.173913043478261	4.75	3938.461538461538	128.0	128.0	-7.281471762832614	58.71919437875681	51.437722615924194	493.3075414070537	580.1215720321622	-3.0534351145038165	8.717557251908397	1.3740458015267174	0.18440779610194902	0.8305847076461769	0.9100449775112444	
1.7104022167361035E12	2.1630434782608696	-6.065217391304348	4.673913043478261	3936.9963369963366	128.0	128.0	-7.2795244788556674	58.705419147660635	51.425894668804965	493.2988868116006	580.1159465451177	-3.16030534351145	8.977099236641221	1.6793893129770991	0.18590704647676162	0.8065967016491754	0.896551724137931	
1.7104022167556353E12	2.1630434782608696	-6.076086956521739	4.576086956521739	3939.9267399267396	128.0	128.0	-7.280750546544856	58.71630951360578	51.43555896706092	493.30703655565225	580.1233750728816	-3.5267175572519083	9.740458015267174	1.7557251908396947	0.1619190404797601	0.8305847076461769	0.8995502248875562	
1.7104022167751672E12	2.0869565217391304	-6.119565217391304	4.641304347826087	3939.9267399267396	128.0	128.0	-7.286231790331816	58.708520377697994	51.422288587366175	493.3085511098565	580.119408383299	-3.9389312977099236	10.80916030534351	1.2519083969465647	0.17091454272863568	0.8215892053973013	0.9085457271364318	
1.710402216794699E12	2.0217391304347827	-6.1521739130434785	4.619565217391305	3939.9267399267396	128.0	128.0	-7.293299709951843	58.72337743322581	51.43007772327396	493.2889340268295	580.1202017212155	-2.732824427480916	10.473282442748092	0.33587786259541985	0.17241379310344826	0.8305847076461769	0.9055472263868065	
1.7104022168142307E12	2.0217391304347827	-6.206521739130435	4.630434782608695	3939.9267399267396	128.0	128.0	-7.2973385211632875	58.73217627193645	51.43483775077316	493.3122293129241	580.1268369110629	-2.732824427480916	9.755725190839694	0.061068702290076333	0.1829085457271364	0.8320839580209894	0.896551724137931	
1.7104022168337625E12	2.032608695652174	-6.228260869565217	4.58695652173913	3917.948717948718	128.0	128.0	-7.277865681393824	58.73686417780688	51.45899849641305	493.24385800884465	580.1420545747345	-3.3587786259541983	9.648854961832061	0.564885496183206	0.1829085457271364	0.8320839580209894	0.9085457271364318	
1.7104022168532942E12	2.032608695652174	-6.260869565217391	4.630434782608695	3941.391941391941	128.0	128.0	-7.288467560823865	58.774439546399066	51.4859719855752	493.28857341868564	580.137727277008	-3.801526717557252	9.32824427480916	0.366412213740458	0.16941529235382308	0.8305847076461769	0.8995502248875562	
1.710402216872826E12	2.010869565217391	-6.195652173913043	4.663043478260869	3939.9267399267396	128.0	128.0	-7.248872786625957	58.76592919420353	51.51705640757757	493.2284961019154	580.112340463679	-3.8625954198473282	10.045801526717558	0.6717557251908397	0.17091454272863568	0.8290854572713643	0.9085457271364318	
1.7104022168923577E12	1.9891304347826086	-6.1521739130434785	4.608695652173913	3939.9267399267396	128.0	128.0	-7.278586897681582	58.74645635443406	51.467869456752474	493.2355640215354	580.110681666217	-3.236641221374046	10.0	0.6412213740458015	0.18440779610194902	0.8200899550224887	0.9100449775112444	
1.7104022169118894E12	1.9456521739130435	-6.1521739130434785	4.543478260869565	3939.9267399267396	128.0	128.0	-7.304262197525763	58.72381016299846	51.419547965472695	493.2430646709281	580.1139992611407	-3.0534351145038165	8.961832061068701	0.732824427480916	0.18440779610194902	0.8305847076461769	0.8995502248875562	
1.7104022169314211E12	1.9456521739130435	-6.141304347826087	4.565217391304348	3917.948717948718	128.0	128.0	-7.334264795096493	58.74898061144121	51.41471581634472	493.2264045746809	580.1191198967839	-3.236641221374046	7.969465648854961	0.916030534351145	0.17091454272863568	0.8290854572713643	0.9010494752623688	
1.7104022169509531E12	1.9782608695652173	-6.108695652173913	4.576086956521739	3938.461538461538	128.0	128.0	-7.316883482561527	58.72864231212644	51.41175882956491	493.28727522936765	580.1107537878459	-2.33587786259542	6.702290076335878	1.0381679389312977	0.16941529235382308	0.8305847076461769	0.9175412293853074	
1.7104022169704849E12	1.9782608695652173	-6.043478260869565	4.554347826086956	3939.9267399267396	128.0	128.0	-7.308228887108433	58.72381016299846	51.41558127589003	493.2991752981157	580.1440739803403	-2.091603053435114	5.480916030534351	1.129770992366412	0.1934032983508246	0.8215892053973013	0.896551724137931	
1.7104022169900166E12	2.0217391304347827	-6.054347826086956	4.5978260869565215	3917.948717948718	128.0	128.0	-7.200407052088625	58.67584927986256	51.47544222777393	493.292323743382	580.3022367122456	-1.8473282442748091	6.0	1.1450381679389312	0.18440779610194902	0.8350824587706147	0.9025487256371814	
1.7104022170095483E12	2.032608695652174	-6.043478260869565	4.5978260869565215	3941.391941391941	128.0	128.0	-7.136940018765929	59.69153817791202	52.554598159146096	493.30350259584225	579.742068021544	-1.4961832061068703	6.152671755725191	1.2213740458015268	0.19490254872563717	0.815592203898051	0.9055472263868065	
1.71040221702908E12	2.108695652173913	-6.08695652173913	4.673913043478261	3939.9267399267396	128.0	128.0	-7.532022301199711	59.04222715404358	51.51020485284387	493.2985983250855	579.7277879390464	-1.4198473282442747	4.351145038167939	1.114503816793893	0.18590704647676162	0.8245877061469266	0.9115442278860569	
1.7104022170486118E12	2.0978260869565215	-6.0978260869565215	4.467391304347826	3938.461538461538	128.0	128.0	-7.409343410652091	58.75417336871307	51.34482995806098	493.3029977444408	580.0392091321003	-1.3587786259541985	5.358778625954198	1.1755725190839694	0.18440779610194902	0.8230884557721139	0.9130434782608695	
1.7104022170681436E12	2.0543478260869565	-6.206521739130435	4.706521739130435	3939.9267399267396	128.0	128.0	-7.296184575102875	58.738667218526274	51.442482643423396	493.2893667566022	580.1463097508323	-3.450381679389313	1.9389312977099236	0.9007633587786259	0.17991004497751123	0.8275862068965517	0.9025487256371814	
1.7104022170876753E12	2.0978260869565215	-6.173913043478261	4.739130434782608	3917.948717948718	128.0	128.0	-7.291785155747552	58.73080596098971	51.43902080524216	493.2999686360322	580.1649171310565	-2.9770992366412212	9.374045801526718	0.33587786259541985	0.16941529235382308	0.8200899550224887	0.9025487256371814	
1.710402217107207E12	2.2717391304347827	-6.141304347826087	4.608695652173913	3938.461538461538	128.0	128.0	-7.263801963782545	58.734556285686054	51.470754321903506	493.28229883698214	580.1713359560175	-0.6564885496183206	5.129770992366412	0.41221374045801523	0.1829085457271364	0.8365817091454273	0.9040479760119939	
1.710402217126739E12	2.1630434782608696	-6.217391304347826	4.728260869565217	3939.9267399267396	128.0	128.0	-7.257166773935173	58.733690826140744	51.47652405220557	493.2877800807691	580.1740044562822	-3.32824427480916	8.885496183206106	0.41221374045801523	0.17841079460269865	0.8035982008995503	0.8935532233883058	
1.7104022171462708E12	2.108695652173913	-6.282608695652174	4.543478260869565	3917.948717948718	128.0	128.0	-7.226587203334237	58.733690826140744	51.50710362280651	493.30234864978183	580.1950639718848	-7.145038167938931	7.038167938931298	0.8396946564885496	0.17691154422788605	0.815592203898051	0.9025487256371814	
1.7104022171658025E12	2.108695652173913	-6.293478260869565	4.673913043478261	3923.8095238095234	128.0	128.0	-7.201705241406589	58.7430666378816	51.54136139647501	493.3006177306912	580.2180707714642	-4.778625954198473	6.458015267175572	0.04580152671755725	0.17391304347826086	0.8215892053973013	0.896551724137931	
1.7104022171853342E12	2.108695652173913	-6.195652173913043	4.6521739130434785	3938.461538461538	128.0	128.0	-7.167375346109313	58.76340493719637	51.59602959108706	493.2841018777015	580.2465588148307	-1.8778625954198473	6.3969465648854955	0.15267175572519084	0.18440779610194902	0.815592203898051	0.9025487256371814	
1.710402217204866E12	2.0978260869565215	-6.173913043478261	4.630434782608695	3938.461538461538	128.0	128.0	-7.103619826271514	58.77487227617172	51.67125244990021	493.29780498716894	580.3151464837964	-0.9770992366412213	5.709923664122138	-0.07633587786259542	0.1664167916041979	0.8290854572713643	0.9085457271364318	
1.7104022172243977E12	2.0543478260869565	-6.076086956521739	4.554347826086956	3939.9267399267396	128.0	128.0	-7.043830996016383	58.784536574427676	51.740705578411294	493.3006177306912	580.3499812304951	-2.091603053435114	5.83206106870229	0.2595419847328244	0.19040479760119938	0.8320839580209894	0.896551724137931	
1.7104022172439294E12	2.0543478260869565	-5.978260869565217	4.619565217391305	3939.9267399267396	128.0	128.0	-7.000269532235806	58.793623899653426	51.79335436741762	493.3172057053096	580.3514236630707	-1.4351145038167938	5.9541984732824424	0.6564885496183206	0.17991004497751123	0.8230884557721139	0.9130434782608695	
1.7104022172634612E12	2.043478260869565	-5.978260869565217	4.608695652173913	3913.5531135531132	128.0	128.0	-7.035537008707167	58.81151006358982	51.775973054882655	493.3092002045155	580.3208440924698	-0.8244274809160305	5.312977099236641	1.2519083969465647	0.1829085457271364	0.8185907046476761	0.896551724137931	
1.710402217282993E12	2.0760869565217392	-6.065217391304348	4.576086956521739	3939.9267399267396	128.0	128.0	-7.160163183231734	58.77826199272418	51.61809880949245	493.29665104110853	580.2082622299507	-2.030534351145038	5.526717557251908	1.450381679389313	0.16941529235382308	0.8230884557721139	0.9100449775112444	
1.710402217302525E12	2.130434782608696	-6.173913043478261	4.6521739130434785	3916.4835164835163	128.0	128.0	-7.217355634850936	58.72207924390784	51.50472360905691	493.2555417127063	580.1576328465501	-1.618320610687023	5.786259541984733	1.3893129770992365	0.1874062968515742	0.8350824587706147	0.8950524737631184	
1.7104022173220566E12	2.1630434782608696	-6.282608695652174	4.630434782608695	3926.7399267399264	128.0	128.0	-7.236107258332641	58.664454062515986	51.42834680418334	493.26044598346306	580.1424151828785	-0.32061068702290074	5.206106870229007	1.083969465648855	0.17691154422788605	0.8230884557721139	0.9130434782608695	
1.7104022173415884E12	2.1739130434782608	-6.3478260869565215	4.630434782608695	3939.9267399267396	128.0	128.0	-7.270076545486039	58.655222494032685	51.38514594854664	493.2822267153534	580.1376551553792	0.1984732824427481	4.412213740458015	1.0381679389312977	0.17991004497751123	0.8230884557721139	0.9055472263868065	
1.71040221736112E12	2.1739130434782608	-6.271739130434782	4.782608695652174	3939.9267399267396	128.0	128.0	-7.281255397946286	58.67224319842377	51.39098780047748	493.28136125580806	580.1401072907577	1.0381679389312977	2.1221374045801524	0.13740458015267176	0.18440779610194902	0.8230884557721139	0.9025487256371814	
1.7104022173806519E12	2.0652173913043477	-6.108695652173913	4.782608695652174	3939.9267399267396	128.0	128.0	-7.294165169497153	58.702678525767155	51.40851335627	493.2822267153534	580.1546758597704	2.778625954198473	5.801526717557252	-0.015267175572519083	0.17391304347826086	0.8290854572713643	0.9040479760119939	
1.7104022174001836E12	1.967391304347826	-6.108695652173913	4.630434782608695	3939.9267399267396	128.0	128.0	-7.289477263626726	58.70275064739593	51.4132733837692	493.2836691479289	580.168955942268	-0.6870229007633587	0.8396946564885496	-0.4580152671755725	0.18590704647676162	0.8215892053973013	0.9085457271364318	
1.7104022174197153E12	1.9239130434782608	-6.119565217391304	4.728260869565217	3939.9267399267396	128.0	128.0	-7.283202681923233	58.70332762042614	51.4201249385029	493.2778994176268	580.1722014155629	-4.122137404580153	3.2519083969465647	-0.04580152671755725	0.17691154422788605	0.8230884557721139	0.9055472263868065	
1.710402217439247E12	2.0543478260869565	-6.043478260869565	4.739130434782608	3938.461538461538	128.0	128.0	-7.283707533324663	58.68969663258751	51.40598909926285	493.2776109311117	580.1728505102218	-2.6412213740458013	1.7404580152671756	-0.015267175572519083	0.17241379310344826	0.8200899550224887	0.9025487256371814	
1.7104022174587788E12	2.0760869565217392	-6.043478260869565	4.663043478260869	3916.4835164835163	128.0	128.0	-7.293516074838171	58.676282009635216	51.38276593479704	493.26672056516657	580.1745814293124	-2.4885496183206106	0.8396946564885496	0.2748091603053435	0.18590704647676162	0.8320839580209894	0.9010494752623688	
1.7104022174783108E12	2.0543478260869565	-6.0978260869565215	4.717391304347826	3928.205128205128	128.0	128.0	-7.307147062676795	58.67570503660501	51.36855797392821	493.3021322848955	580.1725620237067	-0.9007633587786259	2.198473282442748	0.13740458015267176	0.17241379310344826	0.8455772113943029	0.9055472263868065	
1.7104022174978425E12	2.043478260869565	-6.108695652173913	4.760869565217392	3938.461538461538	128.0	128.0	-7.308012522222105	58.66387708948578	51.35586456726367	493.3187202595139	580.1783317540088	-1.4351145038167938	3.236641221374046	-0.13740458015267176	0.18440779610194902	0.841079460269865	0.9055472263868065	
1.7104022175173743E12	2.0760869565217392	-6.1521739130434785	4.782608695652174	3938.461538461538	128.0	128.0	-7.325826564529725	58.66950257653029	51.343676012000564	493.3063874609933	580.176961443062	-0.7480916030534351	2.351145038167939	0.061068702290076333	0.17691154422788605	0.8275862068965517	0.8920539730134932	
1.710402217536906E12	2.0978260869565215	-6.141304347826087	4.83695652173913	3939.9267399267396	128.0	128.0	-7.321499266803178	58.66337223808435	51.34187297128117	493.3125177994392	580.1707589829873	-0.7175572519083969	3.709923664122137	-0.0916030534351145	0.1829085457271364	0.8245877061469266	0.9010494752623688	
1.7104022175564377E12	2.130434782608696	-6.1521739130434785	4.782608695652174	3941.391941391941	128.0	128.0	-7.3460206205869465	58.68277295622504	51.33675233563809	493.28727522936765	580.1651334959428	-1.7251908396946565	4.076335877862595	0.061068702290076333	0.17241379310344826	0.8350824587706147	0.9055472263868065	
1.7104022175759695E12	2.1630434782608696	-6.141304347826087	4.760869565217392	3939.9267399267396	128.0	128.0	-7.342126052633054	58.678373536869714	51.33624748423666	493.27753880948296	580.1499158322712	-2.3206106870229006	4.687022900763359	0.2748091603053435	0.17241379310344826	0.8275862068965517	0.8995502248875562	
1.7104022175955012E12	2.1630434782608696	-6.119565217391304	4.760869565217392	3939.9267399267396	128.0	128.0	-7.336356322330991	58.68558569974729	51.3492293774163	493.29809347368405	580.1603013468149	-2.2442748091603053	5.908396946564885	0.21374045801526717	0.18590704647676162	0.8245877061469266	0.8905547226386806	
1.710402217615033E12	2.1630434782608696	-6.0978260869565215	4.793478260869565	3915.0183150183148	128.0	128.0	-7.330514470400152	58.73816236712484	51.40764789672469	493.2904485810338	580.156695265376	-1.4961832061068703	6.3206106870229	0.33587786259541985	0.18440779610194902	0.8350824587706147	0.9025487256371814	
1.7104022176345647E12	2.1956521739130435	-6.119565217391304	4.75	3941.391941391941	128.0	128.0	-7.320850172144196	58.7230889467107	51.402238774566506	493.27977457997497	580.145444291287	-1.66412213740458	6.061068702290076	0.15267175572519084	0.1829085457271364	0.8290854572713643	0.9010494752623688	
1.7104022176540967E12	2.1956521739130435	-6.119565217391304	4.782608695652174	3941.391941391941	128.0	128.0	-7.313638009266617	58.70015426876	51.38651625949338	493.30249289303936	580.1528006974222	-2.16793893129771	6.122137404580153	-0.030534351145038167	0.1874062968515742	0.841079460269865	0.9055472263868065	
1.7104022176736284E12	2.1630434782608696	-6.119565217391304	4.815217391304348	3938.461538461538	128.0	128.0	-7.326836267332586	58.676786861036646	51.34995059370406	493.3096329342882	580.1598686170422	-2.381679389312977	6.5038167938931295	-0.0916030534351145	0.17241379310344826	0.8230884557721139	0.8950524737631184	
1.7104022176931602E12	2.1847826086956523	-6.173913043478261	4.858695652173913	3939.9267399267396	128.0	128.0	-7.362536473576602	58.697557890124074	51.33502141654747	493.3199463272031	580.150925535074	-2.351145038167939	6.045801526717557	-0.10687022900763359	0.18440779610194902	0.8230884557721139	0.8995502248875562	
1.710402217712692E12	2.217391304347826	-6.184782608695652	4.793478260869565	3926.7399267399264	128.0	128.0	-7.356838864903315	58.70188518785062	51.345046322947304	493.3282403145123	580.1452279264007	-3.480916030534351	5.816793893129771	-0.2748091603053435	0.17691154422788605	0.841079460269865	0.8995502248875562	
1.7104022177322236E12	2.2391304347826084	-6.163043478260869	4.826086956521739	3939.9267399267396	128.0	128.0	-7.353016418578198	58.71789618943885	51.36487977086065	493.30674806913714	580.1643401580263	-3.5267175572519083	5.374045801526718	-0.2595419847328244	0.18440779610194902	0.8275862068965517	0.8875562218890555	
1.7104022177517554E12	2.2391304347826084	-6.076086956521739	4.815217391304348	3939.9267399267396	128.0	128.0	-7.2733220187809495	58.67996021270278	51.40663819392183	493.3029977444408	580.2718013849022	-3.0534351145038165	5.923664122137405	-0.3969465648854962	0.1874062968515742	0.8305847076461769	0.9100449775112444	
1.710402217771287E12	2.2717391304347827	-6.065217391304348	4.771739130434782	3917.948717948718	128.0	128.0	-7.157638926224581	59.208395386743	52.05075646051842	493.3169893404233	580.0920021643642	-3.145038167938931	5.740458015267175	-0.3511450381679389	0.17241379310344826	0.8305847076461769	0.8995502248875562	
1.7104022177908188E12	2.3152173913043477	-6.065217391304348	4.804347826086956	3941.391941391941	128.0	128.0	-7.511323393741059	59.167358179969575	51.65603478622852	493.2919631352381	579.6646815138675	-3.7404580152671754	5.9541984732824424	-0.38167938931297707	0.17991004497751123	0.8380809595202399	0.8950524737631184	
1.7104022178103506E12	2.3152173913043477	-5.967391304347826	4.5978260869565215	3939.9267399267396	128.0	128.0	-7.437326602617098	58.79355177802465	51.35622517540755	493.3060989744782	580.0394976186154	-3.099236641221374	6.2748091603053435	-0.07633587786259542	0.1874062968515742	0.8380809595202399	0.8920539730134932	
1.7104022178298826E12	2.2717391304347827	-6.065217391304348	4.869565217391305	3938.461538461538	128.0	128.0	-7.294453656012256	58.77126619473293	51.47681253872067	493.2936219326999	580.1759517402592	-5.007633587786259	1.2519083969465647	-0.16793893129770993	0.1664167916041979	0.8140929535232384	0.9010494752623688	
1.7104022178494143E12	2.25	-6.206521739130435	4.804347826086956	3939.9267399267396	128.0	128.0	-7.286303911960592	58.76095280181799	51.4746488898574	493.2528732124416	580.1887172685525	-8.015267175572518	12.580152671755725	0.3969465648854962	0.19040479760119938	0.8395802098950524	0.896551724137931	
1.710402217868946E12	2.380434782608696	-6.010869565217392	4.717391304347826	3928.205128205128	128.0	128.0	-7.267768653365214	58.76174613973453	51.49397748636931	493.2922516217532	580.2093440543824	1.1755725190839694	5.190839694656488	0.6870229007633587	0.1829085457271364	0.8320839580209894	0.9190404797601199	
1.7104022178884778E12	2.293478260869565	-5.978260869565217	4.728260869565217	3939.9267399267396	128.0	128.0	-7.266326220789698	58.76520797791577	51.49888175712607	493.275591525506	580.2237683801376	0.24427480916030533	9.572519083969466	1.3893129770992365	0.18440779610194902	0.8275862068965517	0.8995502248875562	
1.7104022179080095E12	2.1739130434782608	-6.141304347826087	4.619565217391305	3939.9267399267396	128.0	128.0	-7.238343028824691	58.75489458500083	51.51655155617614	493.2568399020243	580.2558625049428	-6.778625954198473	9.022900763358779	1.8015267175572518	0.17991004497751123	0.8125937031484257	0.9025487256371814	
1.7104022179275413E12	2.1847826086956523	-6.195652173913043	4.793478260869565	3916.4835164835163	128.0	128.0	-7.214110161556025	58.75143274681959	51.53732258526357	493.27991882323255	580.2768498989166	-8.900763358778626	8.854961832061068	1.9694656488549618	0.1934032983508246	0.8320839580209894	0.9010494752623688	
1.710402217947073E12	2.1956521739130435	-6.173913043478261	4.891304347826087	3941.391941391941	128.0	128.0	-7.184828780273055	58.75157699007714	51.56674820980409	493.2502047121769	580.3120452537592	-5.343511450381679	7.786259541984733	1.83206106870229	0.19940029985007496	0.8200899550224887	0.8950524737631184	
1.7104022179666047E12	2.152173913043478	-6.239130434782608	4.815217391304348	3939.9267399267396	128.0	128.0	-7.114365948959106	58.77141043799048	51.65704448903138	493.2728509036125	580.3798395848083	-4.717557251908397	8.458015267175572	0.7938931297709924	0.17691154422788605	0.8275862068965517	0.8875562218890555	
1.7104022179861365E12	2.0978260869565215	-6.271739130434782	4.793478260869565	3938.461538461538	128.0	128.0	-7.073256620556906	58.81208703662003	51.738830416063124	493.2624653890688	580.3996009110929	-3.3740458015267176	8.015267175572518	0.5801526717557252	0.18440779610194902	0.8230884557721139	0.8995502248875562	
1.7104022180056682E12	2.0760869565217392	-6.1521739130434785	4.75	3938.461538461538	128.0	128.0	-7.009573222347883	58.84800360775037	51.83843038540249	493.26131144300837	580.4134482638178	-2.7022900763358777	6.259541984732824	0.6564885496183206	0.18440779610194902	0.8095952023988006	0.8920539730134932	
1.7104022180252002E12	2.0652173913043477	-6.119565217391304	4.695652173913043	3929.6703296703295	128.0	128.0	-7.031426075866947	58.87879954323763	51.84737346737069	493.2997522711459	580.3649825292805	-2.5343511450381677	6.65648854961832	1.3129770992366412	0.17691154422788605	0.8350824587706147	0.9025487256371814	
1.710402218044732E12	2.0760869565217392	-6.163043478260869	4.760869565217392	3939.9267399267396	128.0	128.0	-7.115592016648295	58.82542953794355	51.709837521295256	493.3107868803486	580.258026153806	-1.9236641221374045	8.15267175572519	1.2061068702290076	0.18590704647676162	0.8320839580209894	0.8935532233883058	
1.7104022180642637E12	2.119565217391304	-6.163043478260869	4.804347826086956	3939.9267399267396	128.0	128.0	-7.184035442356521	58.7776128980652	51.59357745570868	493.31258992106797	580.1954967016575	-0.6259541984732824	8.51908396946565	1.2519083969465647	0.19040479760119938	0.8290854572713643	0.9010494752623688	
1.7104022180837954E12	2.119565217391304	-6.141304347826087	4.913043478260869	3917.948717948718	128.0	128.0	-7.216273810419299	58.72582956860418	51.50955575818489	493.30934444777307	580.1694607936694	-0.6106870229007634	8.198473282442748	0.6259541984732824	0.17391304347826086	0.8320839580209894	0.9040479760119939	
1.7104022181033271E12	2.108695652173913	-6.0978260869565215	4.8478260869565215	3941.391941391941	128.0	128.0	-7.241516380490825	58.71854528409783	51.477028903607	493.3009783388351	580.1543873732552	-1.8778625954198473	6.473282442748092	-0.030534351145038167	0.17991004497751123	0.8200899550224887	0.8920539730134932	
1.710402218122859E12	2.141304347826087	-6.130434782608695	4.673913043478261	3941.391941391941	128.0	128.0	-7.241588502119601	58.70736643163758	51.46577792951798	493.2926122298971	580.1577770898077	0.2748091603053435	6.198473282442748	-0.9770992366412213	0.1829085457271364	0.8500749625187406	0.9010494752623688	
1.7104022181423906E12	2.0543478260869565	-5.967391304347826	4.826086956521739	3939.9267399267396	128.0	128.0	-7.239496974885103	58.71630951360578	51.47681253872067	493.29766074391136	580.1687395773816	0.2748091603053435	4.122137404580153	-1.2366412213740459	0.1829085457271364	0.8215892053973013	0.9010494752623688	
1.7104022181619224E12	2.2282608695652173	-5.978260869565217	4.510869565217392	3916.4835164835163	128.0	128.0	-7.235602406931211	58.716742243378434	51.48113983644722	493.3288894091713	580.1637631849961	-2.854961832061069	4.67175572519084	-0.6717557251908397	0.19790104947526235	0.8245877061469266	0.8860569715142429	
1.710402218181454E12	2.1630434782608696	-6.054347826086956	4.58695652173913	3936.9963369963366	128.0	128.0	-7.2469255026490105	58.71104463470515	51.46411913205613	493.2907370675489	580.1686674557528	-2.748091603053435	6.458015267175572	0.061068702290076333	0.17691154422788605	0.8275862068965517	0.8995502248875562	
1.710402218200986E12	2.1847826086956523	-6.141304347826087	4.8478260869565215	3939.9267399267396	128.0	128.0	-7.247646718936768	58.67649837452154	51.42885165558477	493.2457331711928	580.1757353753728	-3.114503816793893	3.5572519083969465	0.7175572519083969	0.17841079460269865	0.8320839580209894	0.9010494752623688	
1.7104022182205178E12	2.25	-6.217391304347826	4.869565217391305	3939.9267399267396	128.0	128.0	-7.2510364354892305	58.654357034487376	51.40332059899814	493.2869146212238	580.1786202405239	-2.091603053435114	3.236641221374046	1.0687022900763359	0.19040479760119938	0.8365817091454273	0.9040479760119939	
1.7104022182400496E12	2.260869565217391	-6.206521739130435	4.978260869565217	3915.0183150183148	128.0	128.0	-7.260556490487635	58.63120599165035	51.37064950116271	493.3063874609933	580.18886151181	-1.83206106870229	4.870229007633587	0.9007633587786259	0.18440779610194902	0.8275862068965517	0.9025487256371814	
1.7104022182595813E12	2.25	-6.217391304347826	4.891304347826087	3941.391941391941	128.0	128.0	-7.262215287949478	58.63308115399852	51.37086586604904	493.2809285260354	580.1806396461296	-2.1374045801526718	4.015267175572519	1.0534351145038168	0.17241379310344826	0.8380809595202399	0.8845577211394302	
1.710402218279113E12	2.2391304347826084	-6.184782608695652	4.880434782608695	3939.9267399267396	128.0	128.0	-7.253921300640262	58.651616412593896	51.39769511195363	493.2767454715664	580.1671529015485	-0.8854961832061068	5.068702290076335	1.1755725190839694	0.1829085457271364	0.8365817091454273	0.896551724137931	
1.7104022182986448E12	2.2282608695652173	-6.141304347826087	4.880434782608695	3939.9267399267396	128.0	128.0	-7.255868584617208	58.668564995356206	51.412696410738995	493.25662353713795	580.1590752791257	-0.21374045801526717	5.343511450381679	1.1603053435114503	0.17691154422788605	0.8125937031484257	0.9025487256371814	
1.7104022183181765E12	2.3260869565217392	-6.108695652173913	4.815217391304348	3939.9267399267396	128.0	128.0	-7.257671625336603	58.675777158233785	51.41810553289718	493.2656387407349	580.1451558047719	-1.4198473282442747	6.2748091603053435	0.8549618320610687	0.191904047976012	0.8350824587706147	0.8845577211394302	
1.7104022183377083E12	2.358695652173913	-6.076086956521739	4.83695652173913	3939.9267399267396	128.0	128.0	-7.251613408519437	58.662578900167816	51.410965491648376	493.2841018777015	580.1451558047719	-1.6030534351145038	6.442748091603053	0.16793893129770993	0.19040479760119938	0.8290854572713643	0.8935532233883058	
1.71040221835724E12	2.293478260869565	-6.032608695652174	4.891304347826087	3938.461538461538	128.0	128.0	-7.266542585676025	58.679022631528696	51.41248004585267	493.283957634444	580.1276302489794	-2.3053435114503817	7.312977099236641	-0.2748091603053435	0.1874062968515742	0.8230884557721139	0.9025487256371814	
1.710402218376772E12	2.217391304347826	-6.076086956521739	4.826086956521739	3939.9267399267396	128.0	128.0	-7.266398342418474	58.677003225922974	51.4106048835045	493.2457331711928	580.1318133034484	-2.9770992366412212	6.122137404580153	-0.41221374045801523	0.17991004497751123	0.8350824587706147	0.8920539730134932	
1.7104022183963037E12	2.2717391304347827	-6.184782608695652	4.793478260869565	3916.4835164835163	128.0	128.0	-7.25327220598128	58.676137766377664	51.42286556039638	493.2740048496729	580.1457327778021	-2.259541984732824	7.038167938931298	-0.33587786259541985	0.17841079460269865	0.8185907046476761	0.896551724137931	
1.7104022184158354E12	2.260869565217391	-6.195652173913043	4.75	3939.9267399267396	128.0	128.0	-7.247141867535338	58.717247094779864	51.470105227244524	493.27725032296786	580.1553249544293	-0.8091603053435115	6.717557251908397	-0.732824427480916	0.1874062968515742	0.8455772113943029	0.8950524737631184	
1.7104022184353672E12	2.282608695652174	-6.119565217391304	4.815217391304348	3939.9267399267396	128.0	128.0	-7.232789663408955	58.73152717727747	51.49873751386852	493.25958052391775	580.1589310358681	-0.9465648854961831	6.580152671755725	-1.083969465648855	0.18440779610194902	0.8200899550224887	0.8950524737631184	
1.710402218454899E12	2.2717391304347827	-6.119565217391304	4.891304347826087	3938.461538461538	128.0	128.0	-7.244978218672063	58.681258402020745	51.43628018334868	493.26765814634064	580.1804954028721	-2.916030534351145	7.022900763358779	-1.7099236641221374	0.19790104947526235	0.8215892053973013	0.9040479760119939	
1.7104022184744307E12	2.1956521739130435	-6.163043478260869	5.032608695652174	3941.391941391941	128.0	128.0	-7.291280304346121	58.685008726717086	51.39372842237096	493.25792172645595	580.1629698470796	-4.183206106870228	6.7328244274809155	-2.5801526717557253	0.18440779610194902	0.8350824587706147	0.9025487256371814	
1.7104022184939624E12	2.260869565217391	-6.1521739130434785	4.9021739130434785	3932.6007326007325	128.0	128.0	-7.304045832639436	58.67923899641502	51.375193163775585	493.2565514155092	580.1784038756375	-3.282442748091603	5.175572519083969	-2.5801526717557253	0.17991004497751123	0.815592203898051	0.9055472263868065	
1.7104022185134941E12	2.260869565217391	-6.108695652173913	4.880434782608695	3939.9267399267396	128.0	128.0	-7.289621506884278	58.67022379281805	51.38060228593377	493.27862063391456	580.1733553616233	-2.564885496183206	7.32824427480916	-2.1068702290076335	0.17391304347826086	0.8290854572713643	0.9115442278860569	
1.710402218533026E12	2.2282608695652173	-6.08695652173913	4.869565217391305	3941.391941391941	128.0	128.0	-7.293083345065516	58.68104203713442	51.3879586920689	493.25777748319837	580.1762402267743	-2.6717557251908395	6.916030534351145	-1.8778625954198473	0.17241379310344826	0.8275862068965517	0.8875562218890555	
1.7104022185525579E12	2.260869565217391	-6.043478260869565	4.858695652173913	3916.4835164835163	128.0	128.0	-7.101816785552119	58.71782406781007	51.616007282257954	493.2621047809249	580.3685164890906	-2.5343511450381677	7.938931297709924	-1.3282442748091603	0.17841079460269865	0.8290854572713643	0.8830584707646176	
1.7104022185720896E12	2.2717391304347827	-6.08695652173913	4.8478260869565215	3941.391941391941	128.0	128.0	-7.065828092793	59.61429591349315	52.548467820700154	493.2535944287294	579.8084199200177	-1.7251908396946565	7.2824427480916025	-1.2519083969465647	0.17991004497751123	0.8275862068965517	0.8875562218890555	
1.7104022185916213E12	2.3260869565217392	-6.021739130434782	4.945652173913043	3941.391941391941	128.0	128.0	-7.4783638093905225	58.858028514150206	51.37966470475968	493.2687399707723	579.8822003462553	-0.22900763358778625	8.564885496183205	-0.32061068702290074	0.1934032983508246	0.8320839580209894	0.9010494752623688	
1.710402218611153E12	2.4239130434782608	-5.967391304347826	4.663043478260869	3939.9267399267396	128.0	128.0	-7.336139957444663	58.73909994829893	51.402959990854264	493.2757357687635	580.1504206836726	-2.1526717557251906	5.404580152671755	0.2748091603053435	0.17391304347826086	0.8320839580209894	0.8935532233883058	
1.7104022186306848E12	2.1956521739130435	-6.010869565217392	4.934782608695652	3941.391941391941	128.0	128.0	-7.281471762832614	58.71933862201436	51.437866859181746	493.257561118312	580.2084064732082	-3.5877862595419847	10.610687022900763	0.8549618320610687	0.17991004497751123	0.8350824587706147	0.9025487256371814	
1.7104022186502166E12	2.3369565217391304	-6.032608695652174	4.9021739130434785	3934.065934065934	128.0	128.0	-7.278586897681582	58.7362150831479	51.45762818546631	493.2747260659607	580.2180707714642	-1.5572519083969465	8.931297709923664	1.5114503816793892	0.18440779610194902	0.8125937031484257	0.8845577211394302	
1.7104022186697483E12	2.369565217391304	-5.989130434782608	4.8478260869565215	3939.9267399267396	128.0	128.0	-7.2723123159780885	58.718617405726604	51.44630508974851	493.2779715392556	580.2204507852139	-3.7404580152671754	9.16030534351145	2.229007633587786	0.1874062968515742	0.8230884557721139	0.8920539730134932	
1.71040221868928E12	2.3043478260869565	-6.076086956521739	4.793478260869565	3938.461538461538	128.0	128.0	-7.251108557118006	58.74234542159384	51.49123686447583	493.25034895543445	580.2311969079014	-7.893129770992366	10.67175572519084	2.717557251908397	0.1874062968515742	0.8275862068965517	0.8920539730134932	
1.7104022187088118E12	2.2391304347826084	-6.206521739130435	4.804347826086956	3915.0183150183148	128.0	128.0	-7.236972717877951	58.74681696257794	51.50984424469999	493.2706151331205	580.2430969766494	-7.267175572519084	7.709923664122137	2.198473282442748	0.1934032983508246	0.8245877061469266	0.896551724137931	
1.7104022187283438E12	2.293478260869565	-6.260869565217391	4.804347826086956	3939.9267399267396	128.0	128.0	-7.197738551823921	58.75345215242531	51.55571360060139	493.2940546624726	580.2843505483092	-4.091603053435114	6.916030534351145	1.5419847328244274	0.18590704647676162	0.8395802098950524	0.8830584707646176	
1.7104022187478755E12	2.3152173913043477	-6.195652173913043	4.880434782608695	3939.9267399267396	128.0	128.0	-7.1711977924344295	58.77537712757315	51.604179335138724	493.28078428277786	580.3148579972814	-2.4885496183206106	7.679389312977099	1.2213740458015268	0.17991004497751123	0.8275862068965517	0.9025487256371814	
1.7104022187674072E12	2.260869565217391	-6.119565217391304	4.923913043478261	3938.461538461538	128.0	128.0	-7.098354947370881	58.81944344275516	51.72108849538428	493.2547483747898	580.3685886107194	-3.8931297709923665	7.32824427480916	1.0534351145038168	0.18590704647676162	0.8440779610194902	0.8860569715142429	
1.710402218786939E12	2.2065217391304346	-6.0978260869565215	4.913043478260869	3915.0183150183148	128.0	128.0	-7.055370456620509	58.830982903359285	51.775612446738776	493.25662353713795	580.4083276281748	-3.709923664122137	7.206106870229007	0.9465648854961831	0.17691154422788605	0.8275862068965517	0.8950524737631184	
1.7104022188064707E12	2.1847826086956523	-6.032608695652174	4.858695652173913	3935.531135531135	128.0	128.0	-7.027964237685709	58.880818948843356	51.85285471115765	493.28583279679214	580.3935426942758	-2.732824427480916	6.763358778625954	0.8549618320610687	0.17691154422788605	0.8350824587706147	0.8950524737631184	
1.7104022188260024E12	2.2065217391304346	-6.021739130434782	4.782608695652174	3939.9267399267396	128.0	128.0	-7.08551729744879	58.87879954323763	51.793282245788845	493.2583544562286	580.3357011479976	-3.0076335877862594	6.473282442748092	1.0381679389312977	0.1874062968515742	0.8275862068965517	0.8950524737631184	
1.7104022188455342E12	2.25	-5.978260869565217	4.8478260869565215	3941.391941391941	128.0	128.0	-7.166005035162573	58.84425328305403	51.67824824789146	493.27847639065703	580.2605504108132	-2.717557251908397	6.977099236641221	0.9465648854961831	0.17991004497751123	0.815592203898051	0.9025487256371814	
1.710402218865066E12	2.25	-6.032608695652174	4.83695652173913	3915.0183150183148	128.0	128.0	-7.2555079764733295	58.767371626779045	51.51186365030571	493.2442186169885	580.1971554991193	-2.717557251908397	6.290076335877862	1.0687022900763359	0.17241379310344826	0.815592203898051	0.8950524737631184	
1.7104022188845977E12	2.25	-6.076086956521739	4.858695652173913	3941.391941391941	128.0	128.0	-7.282192979120372	58.747898787009575	51.4657058078892	493.2279191288852	580.1825869301066	-3.099236641221374	6.7328244274809155	1.2671755725190839	0.18590704647676162	0.8245877061469266	0.8830584707646176	
1.7104022189041296E12	2.2391304347826084	-6.119565217391304	4.826086956521739	3939.9267399267396	128.0	128.0	-7.310536779229258	58.739316313185256	51.428779533955996	493.24796894168486	580.186625741318	-3.480916030534351	6.091603053435114	0.7480916030534351	0.1829085457271364	0.8290854572713643	0.8905547226386806	
1.7104022189236614E12	2.217391304347826	-6.184782608695652	5.010869565217392	3939.9267399267396	128.0	128.0	-7.307724035707002	58.73116656913359	51.42344253342659	493.2696054303176	580.1874190792346	-1.9541984732824427	9.908396946564885	0.9923664122137404	0.17841079460269865	0.8365817091454273	0.896551724137931	
1.710402218943193E12	2.260869565217391	-6.130434782608695	4.869565217391305	3941.391941391941	128.0	128.0	-7.315513171614787	58.75179335496347	51.43628018334868	493.2770339580815	580.1957851881725	-1.8473282442748091	4.488549618320611	1.0687022900763359	0.16941529235382308	0.8230884557721139	0.8920539730134932	
1.7104022189627249E12	2.2391304347826084	-6.217391304347826	4.728260869565217	3935.531135531135	128.0	128.0	-7.310104049456603	58.7412635971622	51.4311595477056	493.2602296185768	580.1849669438561	-4.106870229007633	7.893129770992366	1.3129770992366412	0.1829085457271364	0.8395802098950524	0.896551724137931	
1.7104022189822566E12	2.2282608695652173	-6.1521739130434785	4.9021739130434785	3939.9267399267396	128.0	128.0	-7.303901589381884	58.74349936765425	51.439597778272365	493.25676778039553	580.180206916357	-2.763358778625954	6.809160305343511	1.099236641221374	0.17391304347826086	0.8245877061469266	0.9040479760119939	
1.7104022190017883E12	2.3043478260869565	-6.119565217391304	4.83695652173913	3941.391941391941	128.0	128.0	-7.30209854866249	58.744653313714664	51.44255476505217	493.2429204276706	580.1845342140836	-3.114503816793893	5.190839694656488	0.5801526717557252	0.17841079460269865	0.8290854572713643	0.9040479760119939	
1.71040221902132E12	2.3043478260869565	-6.076086956521739	4.869565217391305	3915.0183150183148	128.0	128.0	-7.305055535442297	58.74263390810894	51.43757837266664	493.24255981952666	580.1875633224921	-1.1450381679389312	6.473282442748092	0.9312977099236641	0.18440779610194902	0.8305847076461769	0.8740629685157421	
1.7104022190408518E12	2.2717391304347827	-6.065217391304348	4.858695652173913	3941.391941391941	128.0	128.0	-7.298059737451045	58.732320515194004	51.434260777742956	493.22041847949254	580.185327552	-1.4045801526717556	6.305343511450381	0.6717557251908397	0.17691154422788605	0.8380809595202399	0.8920539730134932	
1.7104022190603835E12	2.2391304347826084	-6.0	4.804347826086956	3939.9267399267396	128.0	128.0	-7.3055603868437275	58.7093858372433	51.40382545039957	493.25813809134223	580.1765287132894	-0.8244274809160305	5.847328244274809	1.1755725190839694	0.17391304347826086	0.8290854572713643	0.896551724137931	
1.7104022190799155E12	2.2065217391304346	-6.0	4.858695652173913	3939.9267399267396	128.0	128.0	-7.31118587388824	58.704914296259204	51.39372842237096	493.2737163631578	580.1744371860549	-0.9007633587786259	6.152671755725191	1.5419847328244274	0.1829085457271364	0.8320839580209894	0.896551724137931	
1.7104022190994473E12	2.2717391304347827	-6.032608695652174	4.815217391304348	3938.461538461538	128.0	128.0	-7.311474360403343	58.69625970080611	51.384785340402765	493.27249029546863	580.17472567257	-1.8473282442748091	5.923664122137405	1.7557251908396947	0.17841079460269865	0.8290854572713643	0.896551724137931	
1.710402219118979E12	2.2717391304347827	-6.076086956521739	4.83695652173913	3939.9267399267396	128.0	128.0	-7.313277401122738	58.70239003925205	51.38911263812931	493.2639799432731	580.170542618101	-1.7251908396946565	6.473282442748092	1.618320610687023	0.1829085457271364	0.8320839580209894	0.8905547226386806	
1.7104022191385107E12	2.260869565217391	-6.054347826086956	4.83695652173913	3938.461538461538	128.0	128.0	-7.293804561353274	58.7156604189468	51.42185585759352	493.26823511937084	580.1866978629467	-1.618320610687023	6.137404580152672	1.0381679389312977	0.1829085457271364	0.8320839580209894	0.896551724137931	
1.7104022191580425E12	2.2717391304347827	-6.065217391304348	4.815217391304348	3938.461538461538	128.0	128.0	-7.287241493134677	58.7481151518959	51.46087365876122	493.25784960482713	580.1657825906018	-1.5877862595419847	5.83206106870229	0.8091603053435115	0.19040479760119938	0.8320839580209894	0.8785607196401799	
1.7104022191775742E12	2.293478260869565	-6.08695652173913	4.83695652173913	3915.0183150183148	128.0	128.0	-7.245843678217374	58.74566301651753	51.499819338300156	493.2714805926658	580.1776105377211	-2.045801526717557	5.511450381679389	0.6259541984732824	0.18440779610194902	0.8230884557721139	0.8995502248875562	
1.710402219197106E12	2.282608695652174	-6.0978260869565215	4.8478260869565215	3941.391941391941	128.0	128.0	-7.270004423857263	58.71840104084028	51.44839661698301	493.2569841452818	580.1866978629467	-2.030534351145038	5.374045801526718	0.32061068702290074	0.17991004497751123	0.8380809595202399	0.8950524737631184	
1.7104022192166377E12	2.3043478260869565	-6.1521739130434785	4.739130434782608	3938.461538461538	128.0	128.0	-7.310176171085379	58.6819796183085	51.37180344722312	493.2582823345998	580.1919627418474	-1.2671755725190839	4.473282442748092	0.2748091603053435	0.17991004497751123	0.8350824587706147	0.8875562218890555	
1.7104022192361694E12	2.2717391304347827	-6.119565217391304	4.815217391304348	3938.461538461538	128.0	128.0	-7.301593697261059	58.66870923861376	51.367115541352696	493.2629702404702	580.1881402955223	-0.16793893129770993	5.32824427480916	0.38167938931297707	0.17241379310344826	0.8305847076461769	0.9025487256371814	
1.7104022192557012E12	2.2717391304347827	-6.076086956521739	4.967391304347826	3939.9267399267396	128.0	128.0	-7.2976991293071665	58.67382987425684	51.37613074494967	493.2445792251324	580.1932609311654	0.4580152671755725	4.854961832061068	0.04580152671755725	0.17691154422788605	0.8455772113943029	0.8950524737631184	
1.7104022192752332E12	2.282608695652174	-6.065217391304348	5.010869565217392	3916.4835164835163	128.0	128.0	-7.285366330786506	58.679888091074005	51.394521760287496	493.26571086236373	580.1965785260891	0.183206106870229	4.99236641221374	-0.030534351145038167	0.1874062968515742	0.8350824587706147	0.8875562218890555	
1.710402219294765E12	2.282608695652174	-6.032608695652174	5.0	3938.461538461538	128.0	128.0	-7.215768959017868	58.63264842422586	51.41687946520799	493.2600853753192	580.2922118058458	-0.732824427480916	6.106870229007633	0.24427480916030533	0.19040479760119938	0.8320839580209894	0.8935532233883058	
1.7104022193142966E12	2.2717391304347827	-6.032608695652174	4.945652173913043	3939.9267399267396	128.0	128.0	-7.119198098087084	59.63860090239059	52.51940280430351	493.25042107706327	579.8811906434526	-1.2519083969465647	5.893129770992366	0.564885496183206	0.20089955022488756	0.8365817091454273	0.8860569715142429	
1.7104022193338284E12	2.3043478260869565	-6.043478260869565	5.0	3916.4835164835163	128.0	128.0	-7.48456626946524	59.159496922433014	51.674930652967774	493.2613835646372	579.7604590368818	-1.9236641221374045	5.66412213740458	0.7022900763358778	0.17991004497751123	0.8455772113943029	0.8950524737631184	
1.71040221935336E12	2.260869565217391	-6.0	4.804347826086956	3939.9267399267396	128.0	128.0	-7.33260599763465	58.72842594724011	51.39581994960546	493.2701824033478	580.1688838206392	-3.114503816793893	3.679389312977099	0.15267175572519084	0.1664167916041979	0.8245877061469266	0.8905547226386806	
1.7104022193728918E12	2.2065217391304346	-6.08695652173913	4.945652173913043	3939.9267399267396	128.0	128.0	-7.273249897152174	58.74681696257794	51.47356706542576	493.24782469842734	580.2138155953664	-5.145038167938931	10.839694656488549	1.3282442748091603	0.191904047976012	0.841079460269865	0.8995502248875562	
1.7104022193924236E12	2.1847826086956523	-6.054347826086956	4.978260869565217	3938.461538461538	128.0	128.0	-7.257238895563948	58.738306610382395	51.481067714818444	493.25518110456244	580.2456212336566	-1.1908396946564885	5.374045801526718	1.114503816793893	0.191904047976012	0.815592203898051	0.8845577211394302	
1.7104022194119553E12	2.4130434782608696	-6.043478260869565	4.782608695652174	3941.391941391941	128.0	128.0	-7.244040637497978	58.74746605723692	51.503425419738946	493.2412616302087	580.2464145715732	-2.1526717557251906	9.129770992366412	1.7251908396946565	0.18590704647676162	0.8290854572713643	0.8860569715142429	
1.710402219431487E12	2.2717391304347827	-5.989130434782608	5.021739130434782	3939.9267399267396	128.0	128.0	-7.235169677158556	58.73498901545871	51.499819338300156	493.2541714017596	580.2607667756995	-5.404580152671755	8.305343511450381	2.2442748091603053	0.1829085457271364	0.8395802098950524	0.896551724137931	
1.710402219451019E12	2.2391304347826084	-6.1521739130434785	4.869565217391305	3939.9267399267396	128.0	128.0	-7.210648323374787	58.74970182772897	51.539053504354186	493.23303976452826	580.2735323039929	-7.98473282442748	6.305343511450381	2.015267175572519	0.1829085457271364	0.8215892053973013	0.8830584707646176	
1.7104022194705508E12	2.2717391304347827	-6.195652173913043	4.989130434782608	3939.9267399267396	128.0	128.0	-7.182376644894677	58.754245490341845	51.57186884544717	493.24652650910934	580.2862257106574	-4.900763358778626	6.793893129770992	1.6030534351145038	0.18440779610194902	0.8380809595202399	0.8950524737631184	
1.7104022194900825E12	2.293478260869565	-6.141304347826087	5.0	3915.0183150183148	128.0	128.0	-7.110471381005214	58.75994309901513	51.64947171800992	493.24530044142017	580.3314459718998	-2.4732824427480917	6.305343511450381	1.2213740458015268	0.1874062968515742	0.8230884557721139	0.8845577211394302	
1.7104022195096143E12	2.3152173913043477	-6.054347826086956	5.010869565217392	3939.9267399267396	128.0	128.0	-7.0600583624909365	58.77516076268682	51.71510240019589	493.2521519961539	580.3664249618561	-2.8854961832061066	7.358778625954198	1.3435114503816794	0.1829085457271364	0.8395802098950524	0.8905547226386806	
1.710402219529146E12	2.282608695652174	-6.054347826086956	4.913043478260869	3938.461538461538	128.0	128.0	-7.00791442488604	58.800475454387126	51.79256102950109	493.26888421402987	580.4125828042726	-3.9847328244274807	8.183206106870228	1.1450381679389312	0.191904047976012	0.8230884557721139	0.8875562218890555	
1.7104022195486777E12	2.260869565217391	-6.010869565217392	4.923913043478261	3938.461538461538	128.0	128.0	-6.98476338204901	58.81735191552066	51.83258853347165	493.24623802259424	580.4150349396509	-3.9083969465648853	8.244274809160306	1.3435114503816794	0.19040479760119938	0.8440779610194902	0.8905547226386806	
1.7104022195682095E12	2.2282608695652173	-6.032608695652174	4.934782608695652	3939.9267399267396	128.0	128.0	-7.007121086969506	58.82672772726151	51.81960664029201	493.2768175931952	580.3799117064372	-4.595419847328244	7.801526717557252	1.3740458015267174	0.17241379310344826	0.8230884557721139	0.881559220389805	
1.7104022195877412E12	2.25	-6.076086956521739	4.891304347826087	3936.9963369963366	128.0	128.0	-7.142565505810441	58.79593179177425	51.65336628596381	493.2698939168327	580.2891105758084	-4.183206106870228	7.786259541984733	1.297709923664122	0.19790104947526235	0.8395802098950524	0.8860569715142429	
1.710402219607273E12	2.260869565217391	-6.076086956521739	4.9021739130434785	3912.0879120879117	128.0	128.0	-7.204373741671294	58.75381276056919	51.5494390188979	493.2613835646372	580.2454769903991	-3.679389312977099	7.541984732824427	0.9618320610687022	0.18440779610194902	0.8200899550224887	0.8875562218890555	
1.710402219626805E12	2.260869565217391	-6.076086956521739	4.9021739130434785	3938.461538461538	128.0	128.0	-7.252983719466177	58.71075614819004	51.457772428723864	493.24854591471507	580.241654544074	-4.198473282442748	7.816793893129771	0.9770992366412213	0.17241379310344826	0.8275862068965517	0.8920539730134932	
1.7104022196463367E12	2.2391304347826084	-6.130434782608695	4.869565217391305	3916.4835164835163	128.0	128.0	-7.266398342418474	58.701668822964294	51.43527048054582	493.2639078216443	580.236822394946	-5.7251908396946565	7.221374045801526	0.8396946564885496	0.17091454272863568	0.8290854572713643	0.896551724137931	
1.7104022196658684E12	2.217391304347826	-6.119565217391304	5.065217391304348	3939.9267399267396	128.0	128.0	-7.266758950562353	58.70332762042614	51.43656866986378	493.26347509187167	580.2443951659674	-2.595419847328244	9.129770992366412	0.7633587786259541	0.19040479760119938	0.8215892053973013	0.8935532233883058	
1.7104022196854001E12	2.2717391304347827	-6.08695652173913	4.956521739130435	3939.9267399267396	128.0	128.0	-7.274475964841362	58.715516175689245	51.44104021084788	493.2512865366086	580.2454048687703	-3.0076335877862594	4.870229007633587	1.099236641221374	0.18590704647676162	0.8245877061469266	0.9010494752623688	
1.710402219704932E12	2.2391304347826084	-6.108695652173913	4.771739130434782	3938.461538461538	128.0	128.0	-7.258825571397016	58.7046258097441	51.44580023834708	493.23073187240743	580.238769678923	-3.5267175572519083	8.534351145038167	1.3435114503816794	0.17391304347826086	0.8365817091454273	0.8935532233883058	
1.7104022197244636E12	2.2065217391304346	-6.032608695652174	4.880434782608695	3939.9267399267396	128.0	128.0	-7.259835274199877	58.6977742550104	51.43793898081052	493.25092592846465	580.2472800311184	-2.5038167938931295	8.15267175572519	1.7862595419847327	0.17691154422788605	0.8275862068965517	0.8845577211394302	
1.7104022197439954E12	2.217391304347826	-6.054347826086956	4.923913043478261	3936.9963369963366	128.0	128.0	-7.264595301699079	58.698206984783056	51.433611683083974	493.23289552127073	580.2420872738466	-4.99236641221374	6.824427480916031	1.8015267175572518	0.191904047976012	0.8380809595202399	0.8950524737631184	
1.710402219763527E12	2.25	-6.0978260869565215	4.891304347826087	3938.461538461538	128.0	128.0	-7.260195882343756	58.684864483459535	51.424668601115776	493.23996344089073	580.2459818418005	-4.091603053435114	6.564885496183206	1.465648854961832	0.17691154422788605	0.841079460269865	0.8845577211394302	
1.7104022197830588E12	2.2391304347826084	-6.08695652173913	4.923913043478261	3939.9267399267396	128.0	128.0	-7.261638314919272	58.672892293082754	51.41125397816348	493.25280109081285	580.2346587460827	-2.9923664122137406	7.679389312977099	1.7099236641221374	0.191904047976012	0.8230884557721139	0.9055472263868065	
1.7104022198025908E12	2.2282608695652173	-6.0978260869565215	4.880434782608695	3915.0183150183148	128.0	128.0	-7.266326220789698	58.671161373992135	51.404835153202434	493.2615278078947	580.2330720702496	-3.3740458015267176	7.450381679389313	1.4198473282442747	0.17691154422788605	0.8275862068965517	0.8995502248875562	
1.7104022198221226E12	2.25	-6.076086956521739	4.891304347826087	3941.391941391941	128.0	128.0	-7.261926801434375	58.67361350937051	51.411686707936134	493.24090102206486	580.222037461047	-3.0076335877862594	7.541984732824427	1.2366412213740459	0.17841079460269865	0.8245877061469266	0.8830584707646176	
1.7104022198416543E12	2.25	-6.054347826086956	4.891304347826087	3939.9267399267396	128.0	128.0	-7.276495370447084	58.67620988800644	51.39971451755935	493.2522962394114	580.2303314483561	-4.229007633587786	7.557251908396946	1.4198473282442747	0.19490254872563717	0.8200899550224887	0.8950524737631184	
1.710402219861186E12	2.2282608695652173	-6.0978260869565215	4.858695652173913	3938.461538461538	128.0	128.0	-7.264883788214182	58.67332502285541	51.408441234641224	493.2321021833542	580.2303314483561	-5.2824427480916025	7.0534351145038165	1.3282442748091603	0.16941529235382308	0.841079460269865	0.8875562218890555	
1.7104022198807178E12	2.2391304347826084	-6.0978260869565215	4.913043478260869	3939.9267399267396	128.0	128.0	-7.2779378030226	58.68291719948259	51.404979396459986	493.22337546627233	580.2363896651733	-4.396946564885496	7.083969465648854	0.8854961832061068	0.18590704647676162	0.8035982008995503	0.8935532233883058	
1.7104022199002495E12	2.25	-6.054347826086956	4.880434782608695	3939.9267399267396	128.0	128.0	-7.2623595312070295	58.67238744168132	51.41002791047429	493.2432089141857	580.241005449415	-4.33587786259542	7.007633587786259	1.1450381679389312	0.17691154422788605	0.8230884557721139	0.8920539730134932	
1.7104022199197812E12	2.25	-6.054347826086956	4.880434782608695	3938.461538461538	128.0	128.0	-7.268922599425626	58.68291719948259	51.41399460005696	493.22359183115867	580.2348029893402	-4.045801526717557	7.435114503816793	0.8396946564885496	0.1934032983508246	0.8290854572713643	0.896551724137931	
1.710402219939313E12	2.260869565217391	-6.08695652173913	4.913043478260869	3939.9267399267396	128.0	128.0	-7.261566193290496	58.73989328621546	51.478327092924964	493.2312367238089	580.2196574472973	-5.022900763358779	9.740458015267174	0.8091603053435115	0.19490254872563717	0.8305847076461769	0.8770614692653673	
1.7104022199588447E12	2.25	-6.0978260869565215	4.880434782608695	3916.4835164835163	128.0	128.0	-7.237549690908157	58.728353825611336	51.490804134703176	493.2165960331674	580.2227586773347	-5.221374045801526	8.977099236641221	0.916030534351145	0.1664167916041979	0.8320839580209894	0.8935532233883058	
1.7104022199783767E12	2.2282608695652173	-6.076086956521739	4.869565217391305	3913.5531135531132	128.0	128.0	-7.245050340300839	58.67382987425684	51.428779533955996	493.2158026952509	580.2502370178983	-4.396946564885496	8.625954198473282	0.7786259541984732	0.19940029985007496	0.8305847076461769	0.8950524737631184	
1.7104022199979084E12	2.2065217391304346	-6.0978260869565215	4.815217391304348	3939.9267399267396	128.0	128.0	-7.265244396358061	58.661569197364955	51.39632480100689	493.2187596820307	580.249010950209	-4.625954198473282	8.13740458015267	0.48854961832061067	0.191904047976012	0.815592203898051	0.8740629685157421	
1.7104022200174402E12	2.217391304347826	-6.119565217391304	4.83695652173913	3938.461538461538	128.0	128.0	-7.3031803730941265	58.67310865796908	51.36992828487495	493.23520341339156	580.2451885038839	-4.229007633587786	7.450381679389313	0.8854961832061068	0.1829085457271364	0.8395802098950524	0.9085457271364318	
1.710402220036972E12	2.217391304347826	-6.119565217391304	4.869565217391305	3939.9267399267396	128.0	128.0	-7.302026427033714	58.67858990175604	51.376563474722325	493.2342658322175	580.2472800311184	-3.465648854961832	7.419847328244274	0.8854961832061068	0.19040479760119938	0.8320839580209894	0.8860569715142429	
1.7104022200565037E12	2.25	-6.119565217391304	4.826086956521739	3939.9267399267396	128.0	128.0	-7.300800359344525	58.681619010164624	51.380818650820096	493.2474640902834	580.246126085058	-3.618320610687023	6.748091603053435	0.9312977099236641	0.1649175412293853	0.8200899550224887	0.8950524737631184	
1.7104022200760354E12	2.2391304347826084	-6.0978260869565215	4.826086956521739	3939.9267399267396	128.0	128.0	-7.202570700951899	58.656592804979425	51.45402210402752	493.2272700342262	580.4027742627591	-3.9847328244274807	6.595419847328244	1.1755725190839694	0.1874062968515742	0.8305847076461769	0.9025487256371814	
1.7104022200955671E12	2.2065217391304346	-6.108695652173913	4.858695652173913	3939.9267399267396	128.0	128.0	-7.123813882328736	59.36929874054179	52.245484858213054	493.21825483062923	580.0281745228975	-4.045801526717557	6.030534351145038	1.2671755725190839	0.18440779610194902	0.8275862068965517	0.8845577211394302	
1.7104022201150989E12	2.2282608695652173	-6.130434782608695	4.9021739130434785	3916.4835164835163	128.0	128.0	-7.44619756295652	58.996429919770954	51.55023235681443	493.2135669247588	579.7925531616871	-2.7938931297709924	5.175572519083969	1.2213740458015268	0.17391304347826086	0.8290854572713643	0.9010494752623688	
1.7104022201346306E12	2.3260869565217392	-6.065217391304348	4.641304347826087	3941.391941391941	128.0	128.0	-7.370758339257043	58.74501392185854	51.3742555826015	493.22568335839316	580.1737880913959	-3.5572519083969465	2.5038167938931295	0.7786259541984732	0.1874062968515742	0.841079460269865	0.8995502248875562	
1.7104022201541626E12	2.119565217391304	-6.119565217391304	5.010869565217392	3939.9267399267396	128.0	128.0	-7.2710862482889	58.74999031424407	51.47890406595517	493.23578038642177	580.2679789385771	-7.435114503816793	10.854961832061068	1.297709923664122	0.17391304347826086	0.8395802098950524	0.8860569715142429	
1.7104022201736943E12	2.1847826086956523	-6.195652173913043	4.8478260869565215	3938.461538461538	128.0	128.0	-7.259691030942325	58.73224839356523	51.4725573626229	493.23109248055135	580.2997124552385	-3.450381679389313	3.1755725190839694	0.9618320610687022	0.17991004497751123	0.8305847076461769	0.8845577211394302	
1.710402220193226E12	2.293478260869565	-6.032608695652174	4.815217391304348	3941.391941391941	128.0	128.0	-7.246853381020235	58.73816236712484	51.491308986104606	493.2454446846777	580.3055543071692	0.9618320610687022	7.893129770992366	0.9923664122137404	0.1874062968515742	0.8350824587706147	0.8920539730134932	
1.7104022202127578E12	2.2282608695652173	-6.021739130434782	4.804347826086956	3939.9267399267396	128.0	128.0	-7.239496974885103	58.73996540784424	51.50046843295914	493.22712579096867	580.3179592273187	-4.1679389312977095	8.198473282442748	1.6793893129770991	0.16941529235382308	0.8200899550224887	0.9025487256371814	
1.7104022202322896E12	2.1630434782608696	-6.108695652173913	4.695652173913043	3913.5531135531132	128.0	128.0	-7.227308419621995	58.74732181397937	51.52001339435738	493.2278470072564	580.3327441612178	-7.32824427480916	7.465648854961832	1.8015267175572518	0.1829085457271364	0.8290854572713643	0.8935532233883058	
1.7104022202518213E12	2.1739130434782608	-6.119565217391304	4.934782608695652	3939.9267399267396	128.0	128.0	-7.2027149442094505	58.76131340996187	51.558598465752425	493.223159101386	580.3739256112488	-5.374045801526718	6.381679389312977	1.4198473282442747	0.18440779610194902	0.8305847076461769	0.8920539730134932	
1.710402220271353E12	2.282608695652174	-6.163043478260869	4.891304347826087	3916.4835164835163	128.0	128.0	-7.167014737965434	58.76102492344677	51.59401018548134	493.20996084332	580.3990239380627	-4.549618320610687	5.2824427480916025	0.8854961832061068	0.19490254872563717	0.8305847076461769	0.9055472263868065	
1.7104022202908848E12	2.2717391304347827	-6.173913043478261	4.8478260869565215	3939.9267399267396	128.0	128.0	-7.104990137218254	58.780642006473784	51.67565186925553	493.2075808295704	580.4632121876732	-3.5572519083969465	6.763358778625954	0.7633587786259541	0.17241379310344826	0.841079460269865	0.8875562218890555	
1.7104022203104165E12	2.2282608695652173	-6.130434782608695	4.815217391304348	3939.9267399267396	128.0	128.0	-7.0795312022604	58.81612584783147	51.736594645571074	493.1885407195736	580.4898971903202	-3.450381679389313	6.748091603053435	0.2595419847328244	0.17991004497751123	0.8275862068965517	0.8875562218890555	
1.7104022203299485E12	2.2282608695652173	-6.130434782608695	4.815217391304348	3936.9963369963366	128.0	128.0	-7.050033456091101	58.82434771351191	51.77431425742081	493.18277098927155	580.5113894356954	-2.931297709923664	5.984732824427481	0.732824427480916	0.1874062968515742	0.8380809595202399	0.9100449775112444	
1.7104022203494802E12	2.1739130434782608	-6.08695652173913	4.8478260869565215	3939.9267399267396	128.0	128.0	-7.060779578778694	58.857523662748775	51.79674408397008	493.16899575817536	580.461986119984	-2.3664122137404577	6.366412213740458	0.42748091603053434	0.17991004497751123	0.8230884557721139	0.881559220389805	
1.710402220369012E12	2.2065217391304346	-6.08695652173913	4.858695652173913	3938.461538461538	128.0	128.0	-7.114221705701555	58.825141051428446	51.71091934572689	493.1775782319997	580.3843111257925	-2.610687022900763	6.931297709923664	0.5038167938931297	0.17391304347826086	0.8365817091454273	0.9010494752623688	
1.7104022203885437E12	2.25	-6.0978260869565215	4.8478260869565215	3938.461538461538	128.0	128.0	-7.215696837389093	58.75092789541816	51.53523105802907	493.21262934358475	580.3072852262599	-1.8931297709923662	7.007633587786259	0.549618320610687	0.17241379310344826	0.8455772113943029	0.9055472263868065	
1.7104022204080754E12	2.2065217391304346	-6.0978260869565215	4.880434782608695	3938.461538461538	128.0	128.0	-7.2609892202602895	58.70996281027351	51.44897359001322	493.22438516907516	580.2897596704673	-2.8244274809160306	7.129770992366412	0.7175572519083969	0.18590704647676162	0.8245877061469266	0.8860569715142429	
1.7104022204276072E12	2.2282608695652173	-6.0978260869565215	4.913043478260869	3913.5531135531132	128.0	128.0	-7.278298411166479	58.6977742550104	51.41947584384392	493.20397474813166	580.2769941421741	-4.33587786259542	7.145038167938931	0.42748091603053434	0.1934032983508246	0.8290854572713643	0.8935532233883058	
1.710402220447139E12	2.2391304347826084	-6.163043478260869	4.717391304347826	3939.9267399267396	128.0	128.0	-7.2819044926052685	58.6930142275112	51.41110973490593	493.22243788509826	580.2724504795611	-4.99236641221374	7.419847328244274	0.8549618320610687	0.18440779610194902	0.8275862068965517	0.9055472263868065	
1.7104022204666707E12	2.1956521739130435	-6.108695652173913	5.010869565217392	3941.391941391941	128.0	128.0	-7.2750529378715685	58.69229301122344	51.41724007335187	493.203542018359	580.2716571416447	-1.3893129770992365	9.557251908396946	1.1908396946564885	0.18440779610194902	0.8275862068965517	0.8950524737631184	
1.7104022204862024E12	2.25	-6.0978260869565215	4.793478260869565	3938.461538461538	128.0	128.0	-7.28890029059652	58.716381635234555	51.42748134463803	493.2155142087358	580.2625698164189	-4.091603053435114	5.9541984732824424	0.6564885496183206	0.18440779610194902	0.8305847076461769	0.8920539730134932	
1.7104022205057341E12	2.1739130434782608	-6.076086956521739	4.75	3939.9267399267396	128.0	128.0	-7.290919696202242	58.715371932431694	51.42445223622945	493.23289552127073	580.2672577222893	-4.824427480916031	8.549618320610687	0.7786259541984732	0.17241379310344826	0.8275862068965517	0.8920539730134932	
1.710402220525266E12	2.217391304347826	-6.076086956521739	4.858695652173913	3938.461538461538	128.0	128.0	-7.286664520104471	58.71659800012088	51.42993348001641	493.2529453340704	580.2634352759642	-4.076335877862595	7.419847328244274	0.9465648854961831	0.1874062968515742	0.8275862068965517	0.8995502248875562	
1.7104022205447979E12	2.293478260869565	-6.119565217391304	4.826086956521739	3939.9267399267396	128.0	128.0	-7.297410642792063	58.72056468970355	51.423154046911485	493.2454446846777	580.258026153806	-6.5038167938931295	6.1679389312977095	0.9618320610687022	0.1934032983508246	0.8290854572713643	0.896551724137931	
1.7104022205643296E12	2.217391304347826	-6.130434782608695	4.771739130434782	3935.531135531135	128.0	128.0	-7.295391237186341	58.70376035019879	51.40836911301245	493.23729494062604	580.2555740184276	-3.450381679389313	7.435114503816793	0.9923664122137404	0.1649175412293853	0.815592203898051	0.8950524737631184	
1.7104022205838613E12	2.1956521739130435	-6.108695652173913	4.782608695652174	3916.4835164835163	128.0	128.0	-7.289405141997951	58.689840875845064	51.40043573384711	493.2279191288852	580.2400678682409	-3.0229007633587783	8.076335877862595	1.2061068702290076	0.19040479760119938	0.8365817091454273	0.8905547226386806	
1.710402220603393E12	2.2065217391304346	-6.108695652173913	4.83695652173913	3941.391941391941	128.0	128.0	-7.292650615292861	58.67707534755175	51.384424732258886	493.19524803104974	580.2343702595675	-2.900763358778626	7.572519083969465	1.7099236641221374	0.19040479760119938	0.8110944527736131	0.8830584707646176	
1.7104022206229248E12	2.217391304347826	-6.0978260869565215	4.804347826086956	3939.9267399267396	128.0	128.0	-7.293443953209395	58.679743847816454	51.386299894607056	493.2247457772191	580.232278732333	-2.3664122137404577	7.694656488549618	1.7099236641221374	0.18440779610194902	0.8455772113943029	0.8995502248875562	
1.7104022206424565E12	2.1956521739130435	-6.119565217391304	4.793478260869565	3938.461538461538	128.0	128.0	-7.302964008207799	58.67505594194603	51.372091933738226	493.21573057362207	580.2417987873315	-2.33587786259542	8.13740458015267	1.8473282442748091	0.17991004497751123	0.8275862068965517	0.9175412293853074	
1.7104022206619883E12	2.2282608695652173	-6.119565217391304	4.804347826086956	3941.391941391941	128.0	128.0	-7.304983413813521	58.67642625289277	51.37144283907924	493.23044338589233	580.2381205842639	-2.5801526717557253	8.351145038167939	1.7557251908396947	0.1934032983508246	0.8320839580209894	0.8905547226386806	
1.71040222068152E12	2.2065217391304346	-6.108695652173913	4.804347826086956	3938.461538461538	128.0	128.0	-7.292073642262655	58.66495891391742	51.37288527165476	493.24566104956403	580.2396351384682	-2.8396946564885495	7.98473282442748	1.83206106870229	0.19940029985007496	0.8380809595202399	0.8950524737631184	
1.710402220701052E12	2.1847826086956523	-6.130434782608695	4.83695652173913	3938.461538461538	128.0	128.0	-7.297915494193494	58.661569197364955	51.36365370317146	493.2465986307381	580.2491551934667	-2.5343511450381677	8.198473282442748	1.66412213740458	0.19040479760119938	0.8245877061469266	0.896551724137931	
1.7104022207205837E12	2.2065217391304346	-6.130434782608695	4.815217391304348	3939.9267399267396	128.0	128.0	-7.3053440219574	58.669430454901516	51.36408643294411	493.2344821971038	580.233937529795	-2.396946564885496	7.221374045801526	1.1755725190839694	0.1829085457271364	0.8245877061469266	0.9010494752623688	
1.7104022207401155E12	2.1956521739130435	-6.119565217391304	4.826086956521739	3915.0183150183148	128.0	128.0	-7.306497968017813	58.67447896891582	51.367981000898006	493.19611349059505	580.2293217455533	-2.5038167938931295	7.450381679389313	1.0687022900763359	0.18440779610194902	0.841079460269865	0.9025487256371814	
1.7104022207596472E12	2.2065217391304346	-6.0978260869565215	4.826086956521739	3941.391941391941	128.0	128.0	-7.288323317566314	58.66697831952314	51.37865500195682	493.21984150646233	580.2315575160453	-2.4580152671755724	7.2824427480916025	1.0381679389312977	0.17991004497751123	0.8275862068965517	0.8995502248875562	
1.710402220779179E12	2.2065217391304346	-6.076086956521739	4.83695652173913	3939.9267399267396	128.0	128.0	-7.282192979120372	58.704337323229	51.422144344108624	493.21587481687965	580.224922326198	-2.229007633587786	7.572519083969465	0.9770992366412213	0.17691154422788605	0.8275862068965517	0.9025487256371814	
1.7104022207987107E12	2.1847826086956523	-6.0978260869565215	4.869565217391305	3938.461538461538	128.0	128.0	-7.259186179540895	58.70563551254696	51.446449333006065	493.21883180365944	580.2332884351359	-2.4427480916030535	7.435114503816793	0.9923664122137404	0.191904047976012	0.8200899550224887	0.8950524737631184	
1.7104022208182424E12	2.1739130434782608	-6.08695652173913	4.8478260869565215	3939.9267399267396	128.0	128.0	-7.276855978590963	58.675777158233785	51.39892117964282	493.21500935733434	580.2381927058927	-2.6259541984732824	6.8396946564885495	0.9312977099236641	0.17841079460269865	0.8185907046476761	0.8860569715142429	
1.7104022208377742E12	2.1739130434782608	-6.108695652173913	4.8478260869565215	3938.461538461538	128.0	128.0	-7.296112453474099	58.631422356536675	51.33530990306257	493.2538829152445	580.2351635974841	-2.259541984732824	6.961832061068702	0.9007633587786259	0.1829085457271364	0.8365817091454273	0.8905547226386806	
1.710402220857306E12	2.1630434782608696	-6.0978260869565215	4.826086956521739	3938.461538461538	128.0	128.0	-7.322220483090936	58.63524480286179	51.313024319770854	493.2646290379321	580.2355242056279	-2.0610687022900764	6.854961832061068	0.6259541984732824	0.18440779610194902	0.841079460269865	0.8995502248875562	
1.710402220876838E12	2.152173913043478	-6.076086956521739	4.804347826086956	3939.9267399267396	128.0	128.0	-7.315873779758666	58.642529087368146	51.32665530760948	493.26354721350043	580.2440345578235	-2.045801526717557	6.6106870229007635	0.6870229007633587	0.16941529235382308	0.8350824587706147	0.8920539730134932	
1.7104022208963696E12	2.1630434782608696	-6.076086956521739	4.826086956521739	3915.0183150183148	128.0	128.0	-7.310392535971706	58.64260120899692	51.332208673025214	493.24652650910934	580.2394908952107	-2.3664122137404577	6.65648854961832	0.7480916030534351	0.18590704647676162	0.8365817091454273	0.9010494752623688	
1.7104022209159014E12	2.141304347826087	-6.076086956521739	4.8478260869565215	3939.9267399267396	128.0	128.0	-7.279957208628322	58.619955017561324	51.339997808933	493.25121441497976	580.2847832780818	-2.687022900763359	7.190839694656488	0.7786259541984732	0.19040479760119938	0.8365817091454273	0.896551724137931	
1.710402220935433E12	2.141304347826087	-6.119565217391304	4.83695652173913	3938.461538461538	128.0	128.0	-7.076574215480592	59.31217841055136	52.23560419507077	493.23606887293687	580.0832754472823	-2.5038167938931295	6.671755725190839	1.099236641221374	0.18440779610194902	0.8350824587706147	0.9055472263868065	
1.7104022209549648E12	2.2065217391304346	-6.08695652173913	4.858695652173913	3936.9963369963366	128.0	128.0	-7.365204973841307	59.286575232335956	51.92137025849465	493.27068725474925	579.7441595487785	-1.4961832061068703	5.786259541984733	0.8396946564885496	0.17241379310344826	0.8380809595202399	0.8875562218890555	
1.7104022209744966E12	2.1847826086956523	-6.076086956521739	4.75	3939.9267399267396	128.0	128.0	-7.3933324090638655	58.68666752417893	51.29333511511506	493.2093838702898	580.1688116990103	-2.2748091603053435	5.633587786259541	0.732824427480916	0.18590704647676162	0.8395802098950524	0.8935532233883058	
1.7104022209940283E12	2.108695652173913	-6.076086956521739	4.9021739130434785	3941.391941391941	128.0	128.0	-7.306353724760261	58.693446957283854	51.38709323252359	493.21234085706965	580.2632189110778	-4.244274809160305	5.572519083969466	0.564885496183206	0.19040479760119938	0.8365817091454273	0.8905547226386806	
1.71040222101356E12	2.1739130434782608	-6.076086956521739	4.913043478260869	3947.252747252747	128.0	128.0	-7.2801735735146496	58.677147469180525	51.39697389566587	493.2222936418407	580.2887499676646	-2.396946564885496	5.969465648854961	0.24427480916030533	0.18440779610194902	0.8305847076461769	0.8920539730134932	
1.7104022210330918E12	2.282608695652174	-6.010869565217392	4.760869565217392	3939.9267399267396	128.0	128.0	-7.262792260979684	58.67570503660501	51.41291277562532	493.2349870485052	580.285360251112	-0.564885496183206	6.3969465648854955	0.5801526717557252	0.17391304347826086	0.8365817091454273	0.896551724137931	
1.7104022210526238E12	2.1956521739130435	-6.021739130434782	4.8478260869565215	3917.948717948718	128.0	128.0	-7.255291611587002	58.676642617779095	51.42135100619209	493.22366395278743	580.3029579285334	-3.114503816793893	7.9541984732824424	0.8549618320610687	0.1829085457271364	0.8290854572713643	0.9085457271364318	
1.7104022210721555E12	2.1956521739130435	-6.130434782608695	4.75	3941.391941391941	128.0	128.0	-7.217571999737263	58.67433472565827	51.456762725921	493.23758342714115	580.3243780522797	-7.450381679389313	6.015267175572519	1.2366412213740459	0.1649175412293853	0.8350824587706147	0.8995502248875562	
1.7104022210916873E12	2.1847826086956523	-6.141304347826087	4.869565217391305	3939.9267399267396	128.0	128.0	-7.203075552353329	58.68666752417893	51.4835919718256	493.2496998607755	580.3433460406478	-5.32824427480916	5.770992366412213	0.916030534351145	0.19040479760119938	0.8215892053973013	0.8860569715142429	
1.710402221111219E12	2.2391304347826084	-6.141304347826087	4.880434782608695	3936.9963369963366	128.0	128.0	-7.153311628498034	58.69113906516303	51.537827436665	493.23606887293687	580.3907299507534	-4.122137404580153	5.3893129770992365	0.6259541984732824	0.18440779610194902	0.8305847076461769	0.8875562218890555	
1.7104022211307507E12	2.260869565217391	-6.184782608695652	4.83695652173913	3939.9267399267396	128.0	128.0	-7.120856895548927	58.71291979705332	51.59206290150439	493.23073187240743	580.4242665081342	-3.5114503816793894	6.244274809160305	0.5954198473282443	0.17091454272863568	0.8140929535232384	0.8935532233883058	
1.7104022211502825E12	2.217391304347826	-6.293478260869565	4.869565217391305	3939.9267399267396	128.0	128.0	-7.049312239803343	58.725613203717856	51.676300963914514	493.24897864448775	580.4795116757765	-4.580152671755725	7.740458015267175	0.732824427480916	0.17991004497751123	0.8275862068965517	0.881559220389805	
1.7104022211698142E12	2.260869565217391	-6.206521739130435	4.923913043478261	3939.9267399267396	128.0	128.0	-7.032075170525929	58.75633701757634	51.724261847050414	493.22323122301475	580.4975420829704	-2.854961832061069	8.061068702290076	0.7480916030534351	0.17991004497751123	0.8200899550224887	0.8995502248875562	
1.710402221189346E12	2.25	-6.119565217391304	4.9021739130434785	3938.461538461538	128.0	128.0	-7.051043158893962	58.81302461779411	51.76198145890015	493.2314530886952	580.4572982141135	1.114503816793893	8.381679389312977	1.114503816793893	0.1874062968515742	0.8275862068965517	0.8950524737631184	
1.7104022212088777E12	2.2282608695652173	-6.021739130434782	4.782608695652174	3913.5531135531132	128.0	128.0	-7.137589113424911	58.80328819790938	51.66569908448447	493.2282076154003	580.3927493563592	-0.8702290076335878	8.381679389312977	0.8091603053435115	0.1829085457271364	0.8320839580209894	0.8905547226386806	
1.7104022212284097E12	2.2282608695652173	-5.978260869565217	4.771739130434782	3939.9267399267396	128.0	128.0	-7.200911903490056	58.748259395153454	51.5473474916634	493.2574168750545	580.3399563240953	-2.8091603053435112	7.893129770992366	0.2595419847328244	0.1829085457271364	0.8365817091454273	0.9010494752623688	
1.7104022212479414E12	2.217391304347826	-5.978260869565217	4.760869565217392	3939.9267399267396	128.0	128.0	-7.262575896093357	58.69149967330691	51.42892377721355	493.2334003726722	580.3163004298568	-3.5725190839694654	7.450381679389313	0.4580152671755725	0.18440779610194902	0.8305847076461769	0.8995502248875562	
1.7104022212674731E12	2.2065217391304346	-6.010869565217392	4.793478260869565	3935.531135531135	128.0	128.0	-7.278082046280152	58.6772195908093	51.39913754452915	493.25034895543445	580.3090882669793	-4.2748091603053435	7.343511450381679	0.47328244274809156	0.17841079460269865	0.8365817091454273	0.8905547226386806	
1.710402221287005E12	2.260869565217391	-6.119565217391304	4.804347826086956	3939.9267399267396	128.0	128.0	-7.289837871770605	58.66200192713761	51.372164055367	493.2272700342262	580.3191131733792	-4.65648854961832	6.015267175572519	0.3969465648854962	0.17241379310344826	0.8380809595202399	0.9025487256371814	
1.7104022213065366E12	2.130434782608696	-6.043478260869565	5.0	3939.9267399267396	128.0	128.0	-7.290631209687139	58.65320308842696	51.36257187873982	493.24342527907197	580.3219259169014	-1.3282442748091603	8.931297709923664	0.5038167938931297	0.17241379310344826	0.8305847076461769	0.9055472263868065	
1.7104022213260684E12	2.2391304347826084	-6.130434782608695	4.717391304347826	3938.461538461538	128.0	128.0	-7.28428450635487	58.65478976426003	51.37050525790516	493.26527813259105	580.3157234568266	-3.2213740458015265	4.5038167938931295	0.7175572519083969	0.17091454272863568	0.8440779610194902	0.8935532233883058	
1.7104022213456E12	2.1630434782608696	-6.141304347826087	4.826086956521739	3939.9267399267396	128.0	128.0	-7.292578493664085	58.67361350937051	51.38103501570642	493.2496277391467	580.3103864562972	-3.32824427480916	8.0	1.3587786259541985	0.17391304347826086	0.8245877061469266	0.9115442278860569	
1.7104022213651318E12	2.1847826086956523	-6.108695652173913	4.956521739130435	3916.4835164835163	128.0	128.0	-7.288323317566314	58.6751280635748	51.38680474600849	493.2480410633136	580.3129107133044	-2.778625954198473	7.221374045801526	1.4961832061068703	0.17241379310344826	0.8350824587706147	0.8995502248875562	
1.7104022213846636E12	2.2282608695652173	-6.141304347826087	4.891304347826087	3939.9267399267396	128.0	128.0	-7.292290007148982	58.67375775262806	51.38146774547908	493.23974707600445	580.3338259856494	-3.8167938931297707	6.015267175572519	1.2213740458015268	0.18590704647676162	0.8320839580209894	0.896551724137931	
1.7104022214041956E12	2.25	-6.119565217391304	4.891304347826087	3939.9267399267396	128.0	128.0	-7.282769952150578	58.654357034487376	51.371587082336795	493.2282797370291	580.3211325789848	-2.427480916030534	7.32824427480916	1.099236641221374	0.1829085457271364	0.8215892053973013	0.9085457271364318	
1.7104022214237273E12	2.2065217391304346	-6.076086956521739	4.869565217391305	3935.531135531135	128.0	128.0	-7.285582695672834	58.64144726293651	51.35586456726367	493.2455168063065	580.334258715422	-2.763358778625954	8.16793893129771	0.9618320610687022	0.1874062968515742	0.841079460269865	0.8950524737631184	
1.710402221443259E12	2.1739130434782608	-6.08695652173913	4.793478260869565	3939.9267399267396	128.0	128.0	-7.290703331315915	58.63084538350647	51.34014205219055	493.25092592846465	580.3289938365214	-2.8396946564885495	7.694656488549618	1.3129770992366412	0.18590704647676162	0.8245877061469266	0.8830584707646176	
1.7104022214627908E12	2.141304347826087	-6.08695652173913	4.858695652173913	3939.9267399267396	128.0	128.0	-7.295679723701444	58.62168593665194	51.326006212950496	493.24768045516976	580.3374320670882	-2.6717557251908395	8.625954198473282	1.3740458015267174	0.17241379310344826	0.8380809595202399	0.8950524737631184	
1.7104022214823225E12	2.1847826086956523	-6.0978260869565215	4.83695652173913	3938.461538461538	128.0	128.0	-7.295030629042462	58.60336704294289	51.30833641390043	493.2615278078947	580.3230077413331	-4.305343511450381	7.709923664122137	1.3129770992366412	0.17691154422788605	0.8275862068965517	0.8845577211394302	
1.7104022215018542E12	2.141304347826087	-6.119565217391304	4.804347826086956	3939.9267399267396	128.0	128.0	-7.2832748035520085	58.59658760983797	51.31331280628596	493.2675139030831	580.3199065112957	-4.534351145038168	7.2824427480916025	1.3129770992366412	0.17691154422788605	0.8230884557721139	0.8950524737631184	
1.710402221521386E12	2.141304347826087	-6.0978260869565215	4.858695652173913	3915.0183150183148	128.0	128.0	-7.285799060559161	58.604881597147184	51.31908253658802	493.2747260659607	580.3154349703116	-3.6030534351145036	7.709923664122137	1.2366412213740459	0.20239880059970014	0.841079460269865	0.9025487256371814	
1.7104022215409177E12	2.1630434782608696	-6.0978260869565215	4.815217391304348	3941.391941391941	128.0	128.0	-7.278659019310358	58.59781367752716	51.319154658216796	493.28431824258786	580.3061312801995	-3.1908396946564883	7.251908396946565	1.129770992366412	0.16941529235382308	0.8230884557721139	0.8875562218890555	
1.7104022215604495E12	2.1847826086956523	-6.0978260869565215	4.83695652173913	3938.461538461538	128.0	128.0	-7.290703331315915	58.60329492131412	51.3125915899982	493.282659445126	580.306924618116	-3.3893129770992365	7.0534351145038165	0.9770992366412213	0.19040479760119938	0.8365817091454273	0.896551724137931	
1.7104022215799812E12	2.141304347826087	-6.119565217391304	4.83695652173913	3934.065934065934	128.0	128.0	-7.285077844271403	58.60048217779186	51.315404333520455	493.2906649459201	580.3056264287981	-3.5572519083969465	7.206106870229007	0.8091603053435115	0.17841079460269865	0.8215892053973013	0.8860569715142429	
1.7104022215995132E12	2.1739130434782608	-6.119565217391304	4.869565217391305	3939.9267399267396	128.0	128.0	-7.281327519575062	58.59687609635307	51.315548576778006	493.2902322161475	580.3082228074339	-3.66412213740458	6.625954198473282	0.8091603053435115	0.18590704647676162	0.8245877061469266	0.8935532233883058	
1.710402221619045E12	2.141304347826087	-6.0978260869565215	4.83695652173913	3939.9267399267396	128.0	128.0	-7.279957208628322	58.59658760983797	51.31663040120964	493.2930449596697	580.3067803748585	-3.9541984732824424	6.717557251908397	0.7938931297709924	0.1934032983508246	0.8290854572713643	0.9010494752623688	
1.7104022216385767E12	2.141304347826087	-6.119565217391304	4.83695652173913	3938.461538461538	128.0	128.0	-7.285438452415282	58.596803974724295	51.31136552230901	493.26852360588595	580.3076458344037	-3.9083969465648853	7.251908396946565	1.083969465648855	0.18590704647676162	0.8395802098950524	0.8860569715142429	
1.7104022216581084E12	2.1630434782608696	-6.0978260869565215	4.815217391304348	3939.9267399267396	128.0	128.0	-7.273033532265846	58.588942717187734	51.315909184921885	493.27775517436925	580.2949524277392	-3.7557251908396947	7.007633587786259	0.9618320610687022	0.17841079460269865	0.8470764617691154	0.9010494752623688	
1.7104022216776401E12	2.1630434782608696	-6.0978260869565215	4.858695652173913	3915.0183150183148	128.0	128.0	-7.268129261509093	58.61396892237293	51.34583966086384	493.28078428277786	580.2883172378919	-3.618320610687023	7.038167938931298	0.9770992366412213	0.18590704647676162	0.8320839580209894	0.8905547226386806	
1.7104022216971719E12	2.1630434782608696	-6.119565217391304	4.858695652173913	3913.5531135531132	128.0	128.0	-7.256084949503536	58.642889695512025	51.38680474600849	493.2890782700871	580.2846390348243	-3.5877862595419847	7.312977099236641	1.0076335877862594	0.18590704647676162	0.8320839580209894	0.8860569715142429	
1.7104022217167036E12	2.1847826086956523	-6.119565217391304	4.858695652173913	3939.9267399267396	128.0	128.0	-7.241876988634704	58.650967317934914	51.409090329300206	493.2978771087977	580.2800232505826	-3.282442748091603	6.564885496183206	0.8549618320610687	0.18440779610194902	0.8380809595202399	0.8995502248875562	
1.7104022217362354E12	2.1630434782608696	-6.08695652173913	4.858695652173913	3932.6007326007325	128.0	128.0	-7.251108557118006	58.59478456911857	51.343676012000564	493.295208608533	580.3011548878139	-3.297709923664122	6.8396946564885495	0.916030534351145	0.18590704647676162	0.800599700149925	0.9010494752623688	
1.710402221755767E12	2.1739130434782608	-6.108695652173913	4.8478260869565215	3939.9267399267396	128.0	128.0	-7.287313614763453	58.60300643479901	51.31569282003556	493.2854000670195	580.2811050750142	-3.5572519083969465	6.244274809160305	1.0229007633587786	0.19040479760119938	0.8245877061469266	0.8935532233883058	
1.710402221775299E12	2.1847826086956523	-6.0978260869565215	4.83695652173913	3938.461538461538	128.0	128.0	-7.293732439724498	58.59983308313288	51.30610064340838	493.27212968732476	580.2901202786113	-3.32824427480916	6.3206106870229	0.8396946564885496	0.17841079460269865	0.8290854572713643	0.8785607196401799	
1.7104022217948308E12	2.1847826086956523	-6.0978260869565215	4.826086956521739	3938.461538461538	128.0	128.0	-7.290198479914484	58.596659731466744	51.30646125155226	493.259508402289	580.299207603837	-3.1908396946564883	6.6106870229007635	0.8549618320610687	0.17091454272863568	0.8365817091454273	0.896551724137931	
1.7104022218143625E12	2.1956521739130435	-6.0978260869565215	4.815217391304348	3939.9267399267396	128.0	128.0	-7.291424547603673	58.60293431317024	51.31150976556656	493.2789812420585	580.3002894282687	-3.1908396946564883	6.748091603053435	0.5954198473282443	0.17841079460269865	0.8185907046476761	0.896551724137931	
1.7104022218338943E12	2.1739130434782608	-6.108695652173913	4.8478260869565215	3916.4835164835163	128.0	128.0	-7.118188395284223	58.70239003925205	51.58420164396783	493.26470115956084	580.4407102394952	-3.7404580152671754	7.236641221374046	0.564885496183206	0.1649175412293853	0.8125937031484257	0.8995502248875562	
1.710402221853426E12	2.1956521739130435	-6.1521739130434785	4.83695652173913	3915.0183150183148	128.0	128.0	-7.154754061073549	59.71346315305986	52.558709091986316	493.2711199845219	579.7113442076856	-3.6030534351145036	6.946564885496183	0.6259541984732824	0.17091454272863568	0.8290854572713643	0.8860569715142429	
1.7104022218729578E12	2.1847826086956523	-6.076086956521739	4.858695652173913	3939.9267399267396	128.0	128.0	-7.47309893048989	58.741047232275875	51.267948301785985	493.2802794313764	579.9970901008952	-1.7862595419847327	6.763358778625954	0.48854961832061067	0.15892053973013492	0.8185907046476761	0.9010494752623688	
1.7104022218924895E12	2.3369565217391304	-6.065217391304348	4.717391304347826	3934.065934065934	128.0	128.0	-7.303685224495557	58.70188518785062	51.39819996335506	493.29059282429137	580.2695656144101	-4.091603053435114	1.9083969465648853	0.42748091603053434	0.17241379310344826	0.8350824587706147	0.8845577211394302	
1.7104022219120212E12	2.043478260869565	-6.184782608695652	5.010869565217392	3939.9267399267396	128.0	128.0	-7.267263801963783	58.67736383406685	51.41010003210307	493.2773945662254	580.3285611067488	-6.091603053435114	12.229007633587786	0.5954198473282443	0.18590704647676162	0.8290854572713643	0.896551724137931	
