"sep=	"
Shimmer_6D72_TimestampSync_Unix_CAL	Shimmer_6D72_Accel_LN_X_CAL	Shimmer_6D72_Accel_LN_Y_CAL	Shimmer_6D72_Accel_LN_Z_CAL	Shimmer_6D72_Battery_CAL	Shimmer_6D72_ECG_EMG_Status1_CAL	Shimmer_6D72_ECG_EMG_Status2_CAL	Shimmer_6D72_ECG_LA-RA_24BIT_CAL	Shimmer_6D72_ECG_LL-LA_24BIT_CAL	Shimmer_6D72_ECG_LL-RA_24BIT_CAL	Shimmer_6D72_ECG_RESP_24BIT_CAL	Shimmer_6D72_ECG_Vx-RL_24BIT_CAL	Shimmer_6D72_Gyro_X_CAL	Shimmer_6D72_Gyro_Y_CAL	Shimmer_6D72_Gyro_Z_CAL	Shimmer_6D72_Mag_X_CAL	Shimmer_6D72_Mag_Y_CAL	Shimmer_6D72_Mag_Z_CAL	
ms	m/(s^2)	m/(s^2)	m/(s^2)	mV	no_units	no_units	mV	mV	mV	mV	mV	deg/s	deg/s	deg/s	local_flux	local_flux	local_flux	
1.7104001234495132E12	1.9456521739130435	-6.271739130434782	3.4891304347826084	3956.043956043956	128.0	128.0	-2.79305431760005	2.6755681843242867	-0.1174861332757632	492.8917602171612	592.177567741581	-2.8854961832061066	7.908396946564885	1.5419847328244274	0.17991004497751123	0.8125937031484257	0.9415292353823088	
1.710400123469045E12	1.934782608695652	-6.326086956521739	3.4565217391304346	3942.8571428571427	128.0	128.0	-2.9055640584902833	2.6510468305405177	-0.25451722794976567	492.90164088030355	592.0909496654212	-3.6030534351145036	8.198473282442748	1.5572519083969465	0.17091454272863568	0.8140929535232384	0.9505247376311844	
1.7104001234885767E12	1.934782608695652	-6.326086956521739	3.434782608695652	3929.6703296703295	128.0	128.0	-2.994562148399609	2.5833246211200502	-0.4112375272795591	492.91368519230906	592.0393827008465	-3.7404580152671754	7.648854961832061	1.4045801526717556	0.19940029985007496	0.8350824587706147	0.9340329835082458	
1.7104001235081084E12	1.9456521739130435	-6.293478260869565	3.4130434782608696	3957.5091575091574	128.0	128.0	-3.0189392589258266	2.589238594679665	-0.42970066424616155	492.9015687586747	592.0192607664181	-1.3435114503816794	7.511450381679389	1.7251908396946565	0.17991004497751123	0.8200899550224887	0.9340329835082458	
1.7104001235276401E12	1.9782608695652173	-6.315217391304348	3.402173913043478	3932.6007326007325	128.0	128.0	-3.0425230315355103	2.6104423535397476	-0.4320806779957626	492.9118821515897	592.0147171038052	-1.6335877862595418	8.198473282442748	1.83206106870229	0.1829085457271364	0.8365817091454273	0.9505247376311844	
1.710400123547172E12	1.9782608695652173	-6.315217391304348	3.4130434782608696	3957.5091575091574	128.0	128.0	-3.0389890717254966	2.6098653805095413	-0.42912369121595517	492.89680873117555	592.0156546849793	-2.1374045801526718	8.717557251908397	1.5267175572519083	0.17391304347826086	0.8185907046476761	0.9370314842578711	
1.7104001235667039E12	1.9565217391304348	-6.326086956521739	3.4891304347826084	3956.043956043956	128.0	128.0	-3.053918248882085	2.6203951383108066	-0.43352311057127846	492.91116093530195	592.0164480228958	-3.129770992366412	7.236641221374046	1.3435114503816794	0.1874062968515742	0.8275862068965517	0.9340329835082458	
1.7104001235862356E12	1.967391304347826	-6.315217391304348	3.3478260869565215	3954.5787545787543	128.0	128.0	-3.0575964519496504	2.6402285862241492	-0.4173678657255013	492.93698047840365	592.0030333999435	-3.4045801526717554	7.450381679389313	1.2061068702290076	0.17391304347826086	0.8110944527736131	0.9325337331334332	
1.7104001236057673E12	1.9456521739130435	-6.315217391304348	3.532608695652174	3956.043956043956	128.0	128.0	-3.0854354006571056	2.6734766570897888	-0.411958743567317	492.89796267723597	591.9976963994142	-6.106870229007633	11.282442748091603	1.297709923664122	0.1664167916041979	0.8245877061469266	0.9400299850074962	
1.710400123625299E12	1.9130434782608696	-6.4021739130434785	3.5978260869565215	3944.322344322344	128.0	128.0	-3.0924311986483572	2.7003059029943826	-0.3921252956539745	492.8978184339784	592.0038988594889	-6.381679389312977	6.824427480916031	0.916030534351145	0.17241379310344826	0.8230884557721139	0.9340329835082458	
1.7104001236448308E12	1.9565217391304348	-6.434782608695652	3.434782608695652	3954.5787545787543	128.0	128.0	-3.0956045503144924	2.7094653498489087	-0.38613920046558387	492.9175076386342	591.9911333311956	-3.4045801526717554	7.3893129770992365	0.41221374045801523	0.17241379310344826	0.8275862068965517	0.9280359820089955	
1.7104001236643625E12	1.9239130434782608	-6.391304347826087	3.5	3956.043956043956	128.0	128.0	-3.098777901980627	2.706075633296446	-0.39270226868418084	492.9425338438194	591.9815411545684	-4.2748091603053435	7.7251908396946565	0.8549618320610687	0.17841079460269865	0.8185907046476761	0.9505247376311844	
1.7104001236838943E12	1.9565217391304348	-6.413043478260869	3.4782608695652173	3932.6007326007325	128.0	128.0	-3.1059179432294304	2.7181920669307793	-0.3877258762986513	492.92630647734484	591.9863733036964	-4.045801526717557	7.190839694656488	0.8396946564885496	0.17691154422788605	0.8125937031484257	0.9385307346326837	
1.710400123703426E12	1.9239130434782608	-6.391304347826087	3.434782608695652	3956.043956043956	128.0	128.0	-3.1165198226594715	2.7298036491636815	-0.3867161734957902	492.8920487036763	591.9857963306662	-4.122137404580153	7.938931297709924	0.9312977099236641	0.17091454272863568	0.8215892053973013	0.9400299850074962	
1.7104001237229578E12	1.934782608695652	-6.434782608695652	3.5217391304347827	3956.043956043956	128.0	128.0	-3.129141107695235	2.7770433160118246	-0.35209779168341065	492.90899728643865	591.9671168288132	-4.977099236641221	8.274809160305344	1.1755725190839694	0.19040479760119938	0.8110944527736131	0.9505247376311844	
1.7104001237424897E12	1.9021739130434783	-6.423913043478261	3.510869565217391	3956.043956043956	128.0	128.0	-3.1229386476205168	2.8059640891509163	-0.31697455846960054	492.9285422478369	591.9524040165429	-5.435114503816794	8.793893129770993	1.282442748091603	0.17691154422788605	0.8125937031484257	0.952023988005997	
1.7104001237620215E12	1.9782608695652173	-6.445652173913043	3.4782608695652173	3957.5091575091574	128.0	128.0	-3.0813965894456614	2.8608486486492932	-0.22054794079636822	492.9338071267375	591.9299741899937	-3.8167938931297707	9.465648854961831	1.648854961832061	0.17691154422788605	0.8230884557721139	0.9490254872563718	
1.7104001237815532E12	1.967391304347826	-6.423913043478261	3.4565217391304346	3945.7875457875457	128.0	128.0	-3.12546290462767	2.8671232303527874	-0.2583396742748826	492.92125796333056	591.9196607970788	-3.0839694656488548	9.511450381679388	1.4351145038167938	0.17241379310344826	0.8230884557721139	0.9490254872563718	
1.710400123801085E12	1.9239130434782608	-6.391304347826087	3.4891304347826084	3956.043956043956	128.0	128.0	-3.1606582594702557	2.780649397450614	-0.3800088620196417	492.9023620965913	591.9213917161694	-4.045801526717557	10.030534351145038	1.3587786259541985	0.17691154422788605	0.8230884557721139	0.9385307346326837	
1.7104001238206167E12	1.9565217391304348	-6.380434782608695	3.434782608695652	3956.043956043956	128.0	128.0	-3.160514016212704	2.7699032747630215	-0.3906107414496829	492.87762437792117	591.914107431663	-4.1679389312977095	9.17557251908397	1.2061068702290076	0.17841079460269865	0.8215892053973013	0.9430284857571214	
1.7104001238401484E12	1.934782608695652	-6.33695652173913	3.3804347826086953	3931.135531135531	128.0	128.0	-3.182871721133199	2.7717063154824158	-0.4111654056507833	492.93878351912304	591.9233390001463	-4.67175572519084	8.473282442748092	0.9618320610687022	0.18440779610194902	0.8200899550224887	0.9460269865067465	
1.7104001238596802E12	1.9239130434782608	-6.380434782608695	3.402173913043478	3957.5091575091574	128.0	128.0	-3.1938342087071194	2.739179460904534	-0.45465474780258514	492.90755485386313	591.9606258822234	-6.122137404580153	8.702290076335878	0.7633587786259541	0.19040479760119938	0.8140929535232384	0.9550224887556221	
1.710400123879212E12	1.9130434782608696	-6.445652173913043	3.391304347826087	3956.043956043956	128.0	128.0	-3.0762038321738046	2.8733978120562806	-0.2028060201175237	492.9178682467781	592.042772417399	-7.022900763358779	9.022900763358779	0.7938931297709924	0.17691154422788605	0.8230884557721139	0.952023988005997	
1.7104001238987437E12	1.9239130434782608	-6.489130434782608	3.4239130434782608	3954.5787545787543	128.0	128.0	-2.737809149957794	3.639257388026403	0.9014482380686091	492.91195427321844	591.4776273343119	-5.541984732824427	8.65648854961832	1.0534351145038168	0.1829085457271364	0.8215892053973013	0.9475262368815592	
1.7104001239182756E12	1.9456521739130435	-6.510869565217391	3.369565217391304	3957.5091575091574	128.0	128.0	-3.1613794757580136	2.7468243535547683	-0.4145551222032455	492.9421732356755	591.6610326362887	-4.061068702290076	6.305343511450381	0.7786259541984732	0.17241379310344826	0.8230884557721139	0.952023988005997	
1.7104001239378074E12	1.891304347826087	-6.4021739130434785	3.4565217391304346	3956.043956043956	128.0	128.0	-3.1375072166332267	2.801636791424369	-0.3358704252088577	492.9509720743862	591.9485094485891	-5.0534351145038165	10.030534351145038	0.1984732824427481	0.18590704647676162	0.8140929535232384	0.9370314842578711	
1.710400123957339E12	1.8152173913043477	-6.456521739130435	3.4130434782608696	3956.043956043956	128.0	128.0	-3.1471715148891826	2.8382745788424706	-0.3088969360467119	492.91281973276375	591.9740405051757	-5.175572519083969	7.587786259541985	0.32061068702290074	0.1649175412293853	0.8350824587706147	0.9460269865067465	
1.7104001239768708E12	1.8804347826086956	-6.413043478260869	3.282608695652174	3956.043956043956	128.0	128.0	-3.138516919436088	2.8501746475904763	-0.28834227184561156	492.92205130124705	591.9865175469539	-3.312977099236641	8.610687022900763	0.4580152671755725	0.17241379310344826	0.8275862068965517	0.9415292353823088	
1.7104001239964026E12	1.8804347826086956	-6.3478260869565215	3.3478260869565215	3932.6007326007325	128.0	128.0	-3.1395987438677246	2.8713062848217827	-0.26829245904594173	492.93243681579077	591.998706102217	-5.7251908396946565	7.816793893129771	0.9312977099236641	0.1829085457271364	0.8110944527736131	0.9325337331334332	
1.7104001240159343E12	1.858695652173913	-6.445652173913043	3.3260869565217392	3957.5091575091574	128.0	128.0	-3.1262562425442035	2.8849372726604074	-0.24131896988379598	492.9177961251493	592.0153661984642	-8.610687022900763	7.083969465648854	1.1450381679389312	0.17241379310344826	0.8095952023988006	0.95952023988006	
1.710400124035466E12	1.826086956521739	-6.532608695652174	3.4239130434782608	3956.043956043956	128.0	128.0	-3.1179622552349873	2.9186901949274775	-0.19927206030750996	492.932364694162	592.0367863222107	-7.908396946564885	6.366412213740458	1.114503816793893	0.17691154422788605	0.815592203898051	0.9415292353823088	
1.7104001240549978E12	1.8369565217391304	-6.543478260869565	3.4456521739130435	3954.5787545787543	128.0	128.0	-3.1129858628494578	2.950928562990256	-0.1620572998592019	492.91765188189174	592.0543118780031	-5.923664122137405	5.3893129770992365	1.083969465648855	0.17691154422788605	0.815592203898051	0.9460269865067465	
1.7104001240745295E12	1.8369565217391304	-6.521739130434782	3.3152173913043477	3956.043956043956	128.0	128.0	-3.0645201283121266	2.996220945861453	-0.06829918245067387	492.933013788821	592.1157595057201	-4.427480916030534	5.480916030534351	1.4809160305343512	0.18440779610194902	0.8275862068965517	0.9415292353823088	
1.7104001240940613E12	1.8695652173913042	-6.445652173913043	3.3260869565217392	3956.043956043956	128.0	128.0	-3.0221126105919613	3.0317047872191414	0.009592176627180175	492.8994051098115	592.1662446458632	-3.66412213740458	5.32824427480916	1.618320610687023	0.1829085457271364	0.8245877061469266	0.9400299850074962	
1.7104001241135933E12	1.8478260869565217	-6.4021739130434785	3.358695652173913	3956.043956043956	128.0	128.0	-2.9490534006420854	3.0710110749019477	0.12195767425986223	492.8999820828417	592.160835523705	-4.396946564885496	5.129770992366412	1.7404580152671756	0.18440779610194902	0.8125937031484257	0.9640179910044977	
1.710400124133125E12	1.8695652173913042	-6.413043478260869	3.3369565217391304	3956.043956043956	128.0	128.0	-2.9287151013273123	3.0735353319091003	0.14482023058178792	492.9082760701509	592.1138122217432	-4.244274809160305	5.0534351145038165	1.8625954198473282	0.17991004497751123	0.815592203898051	0.9460269865067465	
1.7104001241526567E12	1.8804347826086956	-6.391304347826087	3.369565217391304	3931.135531135531	128.0	128.0	-3.0356714768018103	3.025862935288303	-0.009808541513507548	492.8965923662892	591.9937297098314	-4.549618320610687	6.015267175572519	1.7709923664122136	0.18590704647676162	0.8320839580209894	0.9430284857571214	
1.7104001241721885E12	1.9021739130434783	-6.413043478260869	3.3478260869565215	3957.5091575091574	128.0	128.0	-3.1207028771284673	2.9743680923423876	-0.1463347847860795	492.9320762076469	591.9342293660915	-5.068702290076335	6.259541984732824	1.5877862595419847	0.1829085457271364	0.8290854572713643	0.9475262368815592	
1.7104001241917202E12	1.9021739130434783	-6.434782608695652	3.3369565217391304	3956.043956043956	128.0	128.0	-3.1833765725346295	2.941913359393282	-0.24146321314134755	492.94563507385675	591.8918218483713	-4.351145038167939	6.900763358778626	1.099236641221374	0.17991004497751123	0.8125937031484257	0.952023988005997	
1.710400124211252E12	1.9130434782608696	-6.423913043478261	3.3260869565217392	3954.5787545787543	128.0	128.0	-3.2027051690465416	2.9045543556874223	-0.29815081335911914	492.9366198702598	591.8814363338275	-3.618320610687023	7.145038167938931	0.9618320610687022	0.17691154422788605	0.8125937031484257	0.9385307346326837	
1.7104001242307837E12	1.9130434782608696	-6.423913043478261	3.3260869565217392	3956.043956043956	128.0	128.0	-3.2210961843843684	2.9321769395085506	-0.2889192448758179	492.88728867617715	591.8759550900406	-3.877862595419847	7.816793893129771	0.9770992366412213	0.17241379310344826	0.8125937031484257	0.9565217391304347	
1.7104001242503154E12	1.9021739130434783	-6.467391304347826	3.2282608695652173	3948.7179487179483	128.0	128.0	-3.231553820556858	2.9354224128034607	-0.29613140775339697	492.9022899749625	591.8830230096606	-4.2748091603053435	6.427480916030534	0.5954198473282443	0.17991004497751123	0.8230884557721139	0.952023988005997	
1.7104001242698472E12	1.9021739130434783	-6.4021739130434785	3.3260869565217392	3956.043956043956	128.0	128.0	-3.223259833247642	2.9400381970451117	-0.28322163620253044	492.88007651329957	591.8705459678824	-3.1755725190839694	9.145038167938932	-0.061068702290076333	0.17991004497751123	0.815592203898051	0.952023988005997	
1.710400124289379E12	1.891304347826087	-6.4021739130434785	3.1739130434782608	3957.5091575091574	128.0	128.0	-3.2368908210862664	2.966651078063378	-0.2702397430228881	492.87863408072405	591.8804266310248	-2.3053435114503817	8.183206106870228	0.5038167938931297	0.17841079460269865	0.8140929535232384	0.9475262368815592	
1.710400124308911E12	1.8369565217391304	-6.3478260869565215	3.293478260869565	3932.6007326007325	128.0	128.0	-3.2381890104042306	2.9858354313177387	-0.252353579086492	492.87084494481627	591.8714835490565	-4.534351145038168	9.32824427480916	-0.33587786259541985	0.1829085457271364	0.8140929535232384	0.9475262368815592	
1.7104001243284426E12	1.8695652173913042	-6.434782608695652	3.293478260869565	3957.5091575091574	128.0	128.0	-3.2454011732818095	2.996293067490228	-0.24910810579158138	492.8814468242463	591.8656416971256	-5.32824427480916	7.145038167938931	0.07633587786259542	0.18590704647676162	0.8215892053973013	0.9430284857571214	
1.7104001243479744E12	1.8478260869565217	-6.423913043478261	3.2717391304347827	3956.043956043956	128.0	128.0	-3.2528297010457163	3.009491325556198	-0.24333837548951812	492.86709462011993	591.8580689261042	-4.396946564885496	7.480916030534351	-0.3053435114503817	0.17841079460269865	0.8140929535232384	0.9505247376311844	
1.710400124367506E12	1.8804347826086956	-6.423913043478261	3.3043478260869565	3956.043956043956	128.0	128.0	-3.2433817676760874	3.009707690442525	-0.23367407723356215	492.8613970114466	591.8492700873936	-3.847328244274809	7.435114503816793	-0.21374045801526717	0.17241379310344826	0.8200899550224887	0.9565217391304347	
1.7104001243870378E12	1.858695652173913	-6.445652173913043	3.3260869565217392	3957.5091575091574	128.0	128.0	-3.257373363658591	2.999971270557794	-0.2574020931007973	492.8939959876533	591.8508567632266	-3.9083969465648853	8.580152671755725	0.2595419847328244	0.1829085457271364	0.8110944527736131	0.9505247376311844	
1.7104001244065696E12	1.8804347826086956	-6.434782608695652	3.3260869565217392	3950.18315018315	128.0	128.0	-3.263575823733309	3.0045870547994444	-0.25898876893386474	492.8852692705714	591.8297251259953	-2.748091603053435	8.366412213740457	0.3969465648854962	0.17691154422788605	0.8230884557721139	0.952023988005997	
1.7104001244261013E12	1.891304347826087	-6.4021739130434785	3.282608695652174	3956.043956043956	128.0	128.0	-3.2620612695290174	3.0097076904425255	-0.252353579086492	492.92601799082973	591.8258305580414	-2.763358778625954	8.51908396946565	0.5343511450381679	0.17391304347826086	0.8290854572713643	0.9685157421289355	
1.710400124445633E12	1.891304347826087	-6.380434782608695	3.2717391304347827	3956.043956043956	128.0	128.0	-3.274971041079884	3.0197325968423603	-0.2552384442375236	492.92233978776216	591.8174644491035	-3.450381679389313	7.587786259541985	0.41221374045801523	0.17991004497751123	0.8125937031484257	0.9460269865067465	
1.7104001244651648E12	1.9021739130434783	-6.380434782608695	3.25	3931.135531135531	128.0	128.0	-3.3036754493326486	3.0475715455498156	-0.2561039037828331	492.8942844741684	591.8207099223984	-4.396946564885496	8.183206106870228	0.21374045801526717	0.17691154422788605	0.8200899550224887	0.952023988005997	
1.7104001244846968E12	1.9239130434782608	-6.4021739130434785	3.282608695652174	3957.5091575091574	128.0	128.0	-3.2899723398652485	3.053918248882085	-0.23605409098316324	492.88541351382895	591.8167432328157	-4.290076335877862	8.610687022900763	0.38167938931297707	0.1664167916041979	0.8185907046476761	0.9610194902548725	
1.7104001245042285E12	1.9130434782608696	-6.391304347826087	3.3043478260869565	3956.043956043956	128.0	128.0	-3.274249824792126	3.0782232377795267	-0.19602658701259937	492.90394877242437	591.8132092730057	-4.396946564885496	8.198473282442748	0.2595419847328244	0.1664167916041979	0.8110944527736131	0.9550224887556221	
1.7104001245237603E12	1.858695652173913	-6.445652173913043	3.293478260869565	3954.5787545787543	128.0	128.0	-3.253695160591026	3.148830312351026	-0.10486484823999981	492.8937075011382	591.8084492455065	-4.33587786259542	7.9541984732824424	0.2900763358778626	0.18440779610194902	0.8275862068965517	0.9490254872563718	
1.710400124543292E12	1.8478260869565217	-6.423913043478261	3.282608695652174	3954.5787545787543	128.0	128.0	-3.2357368750258537	3.1471715148891826	-0.08856536013667109	492.9061124212876	591.7981358525915	-4.030534351145038	7.816793893129771	0.4580152671755725	0.19040479760119938	0.8185907046476761	0.9430284857571214	
1.7104001245628237E12	1.858695652173913	-6.423913043478261	3.2391304347826084	3931.135531135531	128.0	128.0	-3.254272133621232	3.094378482625304	-0.15989365099592817	492.9162094493162	591.8004437447123	-3.49618320610687	6.900763358778626	0.9007633587786259	0.17091454272863568	0.8215892053973013	0.9400299850074962	
1.7104001245823555E12	1.8478260869565217	-6.413043478260869	3.282608695652174	3954.5787545787543	128.0	128.0	-3.2926408401299527	3.0768529268327867	-0.21578791329716604	492.8787062023528	591.7996504067959	-3.847328244274809	8.305343511450381	1.129770992366412	0.16941529235382308	0.8125937031484257	0.9460269865067465	
1.7104001246018872E12	1.858695652173913	-6.413043478260869	3.2717391304347827	3956.043956043956	128.0	128.0	-3.3002136111514107	3.063510425509265	-0.23670318564214538	492.8904620278433	591.801525569144	-3.4045801526717554	7.358778625954198	1.2366412213740459	0.17091454272863568	0.8290854572713643	0.9475262368815592	
1.710400124621419E12	1.891304347826087	-6.423913043478261	3.260869565217391	3932.6007326007325	128.0	128.0	-3.3081469903167475	3.065674074372539	-0.24247291594420864	492.8820959189053	591.8085213671352	-3.5114503816793894	6.549618320610687	1.5267175572519083	0.17991004497751123	0.815592203898051	0.952023988005997	
1.7104001246409507E12	1.858695652173913	-6.445652173913043	3.282608695652174	3929.6703296703295	128.0	128.0	-3.3168015857698427	3.0590388845251666	-0.25776270124467626	492.8791389321255	591.8173202058459	-4.458015267175572	6.427480916030534	0.9618320610687022	0.16941529235382308	0.815592203898051	0.95952023988006	
1.7104001246604824E12	1.8478260869565217	-6.5	3.293478260869565	3956.043956043956	128.0	128.0	-3.0551443165712735	3.344784777734849	0.28964046116357584	492.8814468242463	591.7449822121838	-4.488549618320611	5.0534351145038165	0.8091603053435115	0.18440779610194902	0.8125937031484257	0.9565217391304347	
1.7104001246800144E12	1.9239130434782608	-6.5	3.3043478260869565	3954.5787545787543	128.0	128.0	-2.7891597496461573	3.979166624446705	1.1900068748005481	492.9028669479927	591.2609018398407	-3.312977099236641	4.824427480916031	1.4351145038167938	0.18440779610194902	0.8125937031484257	0.9565217391304347	
1.7104001246995461E12	1.9021739130434783	-6.478260869565217	3.2065217391304346	3956.043956043956	128.0	128.0	-3.3165852208835154	3.0086979876396645	-0.30788723324385087	492.8910390008735	591.6211493755758	-2.5801526717557253	3.297709923664122	1.7251908396946565	0.1874062968515742	0.8230884557721139	0.9340329835082458	
1.710400124719078E12	1.8695652173913042	-6.4021739130434785	3.3478260869565215	3956.043956043956	128.0	128.0	-3.2696340405504754	3.136064784057711	-0.13356925649276455	492.8897408115555	591.7905630815701	-3.3435114503816794	7.1603053435114505	0.7938931297709924	0.17691154422788605	0.815592203898051	0.9415292353823088	
1.7104001247386096E12	1.826086956521739	-6.467391304347826	3.282608695652174	3928.205128205128	128.0	128.0	-3.269706162179251	3.1488303123510257	-0.12087584982822536	492.87409041811117	591.8388124512211	-5.511450381679389	4.33587786259542	1.3435114503816794	0.17841079460269865	0.8245877061469266	0.9505247376311844	
1.7104001247581414E12	1.9456521739130435	-6.4021739130434785	3.293478260869565	3956.043956043956	128.0	128.0	-3.246987849114877	3.145584839056115	-0.10140301005876184	492.8784177158377	591.8436446003491	-1.3587786259541985	5.175572519083969	1.3282442748091603	0.17841079460269865	0.8215892053973013	0.9400299850074962	
1.710400124777673E12	1.9565217391304348	-6.326086956521739	3.2282608695652173	3931.135531135531	128.0	128.0	-3.237323550858921	3.1564752050012594	-0.08084834585766147	492.89435659579715	591.8484767494771	-2.351145038167939	6.351145038167939	1.8931297709923662	0.1649175412293853	0.8200899550224887	0.9490254872563718	
1.7104001247972048E12	1.8804347826086956	-6.391304347826087	3.1739130434782608	3957.5091575091574	128.0	128.0	-3.209700967037793	3.166716476287422	-0.04298449075037131	492.85490606485683	591.8546792095517	-5.083969465648854	6.351145038167939	1.4198473282442747	0.1829085457271364	0.8365817091454273	0.9400299850074962	
1.7104001248167366E12	1.8695652173913042	-6.445652173913043	3.3369565217391304	3956.043956043956	128.0	128.0	-3.205590034197573	3.178039572005221	-0.02755046219235208	492.8543290918266	591.8828066447743	-5.801526717557252	5.893129770992366	1.129770992366412	0.17391304347826086	0.8365817091454273	0.9550224887556221	
1.7104001248362683E12	1.9021739130434783	-6.467391304347826	3.358695652173913	3956.043956043956	128.0	128.0	-3.1754431933692926	3.2215289141570227	0.046085720787730315	492.8615412547042	591.9262959869261	-5.251908396946565	4.3206106870229	0.8244274809160305	0.1874062968515742	0.8230884557721139	0.9490254872563718	
1.7104001248558E12	1.9456521739130435	-6.478260869565217	3.3152173913043477	3956.043956043956	128.0	128.0	-3.1437096767079447	3.2481417951752896	0.10443211846734506	492.86521945777173	591.9754108161225	-4.259541984732825	4.870229007633587	0.366412213740458	0.18440779610194902	0.8230884557721139	0.9460269865067465	
1.710400124875332E12	1.9130434782608696	-6.467391304347826	3.2391304347826084	3953.113553113553	128.0	128.0	-3.068558939523571	3.298771178575895	0.23021223905232419	492.85505030811436	592.0370026870969	-3.709923664122137	5.908396946564885	0.549618320610687	0.17091454272863568	0.8245877061469266	0.9505247376311844	
1.7104001248948638E12	1.858695652173913	-6.4021739130434785	3.1956521739130435	3954.5787545787543	128.0	128.0	-3.0296132599846435	3.33346168201705	0.3038484220324066	492.84646783429	592.0426281741414	-3.3893129770992365	6.244274809160305	0.6259541984732824	0.16941529235382308	0.815592203898051	0.9490254872563718	
1.7104001249143955E12	1.8804347826086956	-6.391304347826087	3.260869565217391	3954.5787545787543	128.0	128.0	-3.031776908847917	3.3736334292451655	0.34185652039724834	492.8811583377312	591.958173746845	-3.709923664122137	6.213740458015267	0.9465648854961831	0.18440779610194902	0.815592203898051	0.952023988005997	
1.7104001249339272E12	1.8804347826086956	-6.413043478260869	3.2717391304347827	3929.6703296703295	128.0	128.0	-3.1020233752755377	3.3397362637205443	0.23771288844500643	492.8284374270961	591.849774938795	-4.290076335877862	5.770992366412213	0.9312977099236641	0.17091454272863568	0.8215892053973013	0.9550224887556221	
1.710400124953459E12	1.9130434782608696	-6.4021739130434785	3.2717391304347827	3956.043956043956	128.0	128.0	-3.173856517536225	3.2746825545647806	0.10082603702855553	492.8486314831533	591.7894812571384	-4.213740458015267	5.816793893129771	0.9007633587786259	0.1829085457271364	0.8290854572713643	0.9400299850074962	
1.7104001249729907E12	1.9021739130434783	-6.423913043478261	3.260869565217391	3954.5787545787543	128.0	128.0	-3.2637921886196364	3.2169852515441484	-0.04680693707548822	492.8707728231875	591.7400058197983	-3.541984732824427	5.938931297709924	1.1755725190839694	0.18440779610194902	0.8305847076461769	0.95952023988006	
1.7104001249925225E12	1.891304347826087	-6.467391304347826	3.2391304347826084	3954.5787545787543	128.0	128.0	-3.2917032589558675	3.209700967037793	-0.08200229191807412	492.88303350007936	591.7403664279421	-3.8625954198473282	6.122137404580153	1.2213740458015268	0.17841079460269865	0.8215892053973013	0.9550224887556221	
1.7104001250120542E12	1.8804347826086956	-6.478260869565217	3.2717391304347827	3956.043956043956	128.0	128.0	-3.27554801411009	3.1961421008279443	-0.07940591328214566	492.90755485386313	591.7372651979048	-3.282442748091603	6.65648854961832	1.465648854961832	0.18440779610194902	0.8200899550224887	0.9565217391304347	
1.710400125031586E12	1.8695652173913042	-6.510869565217391	3.1304347826086953	3956.043956043956	128.0	128.0	-3.281606230927257	3.206455493742883	-0.075150737184374	492.87661467511833	591.7264469535884	-2.381679389312977	5.587786259541985	1.3129770992366412	0.17241379310344826	0.8050974512743628	0.9565217391304347	
1.7104001250511177E12	1.9021739130434783	-6.391304347826087	3.358695652173913	3954.5787545787543	128.0	128.0	-3.272518905701507	3.2226107385886595	-0.04990816711284723	492.87409041811117	591.7260863454445	-1.099236641221374	7.450381679389313	1.0381679389312977	0.1619190404797601	0.815592203898051	0.9460269865067465	
1.7104001250706497E12	1.9021739130434783	-6.423913043478261	3.1956521739130435	3954.5787545787543	128.0	128.0	-3.2559309310830753	3.2058785207126763	-0.05005241037039881	492.88339410822323	591.7219754126043	-2.396946564885496	5.175572519083969	1.114503816793893	0.17091454272863568	0.8185907046476761	0.9550224887556221	
1.7104001250901814E12	1.8695652173913042	-6.358695652173913	3.184782608695652	3931.135531135531	128.0	128.0	-3.2723746624439554	3.2314095772993063	-0.040965085144649166	492.8864953382606	591.7149074929843	-1.7099236641221374	6.671755725190839	0.8396946564885496	0.1664167916041979	0.8140929535232384	0.9400299850074962	
1.7104001251097131E12	1.826086956521739	-6.413043478260869	3.3369565217391304	3957.5091575091574	128.0	128.0	-3.284707460964616	3.275764378996418	-0.008943081968198058	492.86752734989255	591.7064692624175	-3.83206106870229	6.748091603053435	0.5954198473282443	0.15742128935532235	0.815592203898051	0.952023988005997	
1.7104001251292449E12	1.8478260869565217	-6.478260869565217	3.282608695652174	3956.043956043956	128.0	128.0	-3.2792262171776554	3.264946134680049	-0.014280082497606577	492.8897408115555	591.7117341413182	-4.351145038167939	5.267175572519084	0.6717557251908397	0.17241379310344826	0.815592203898051	0.9565217391304347	
1.7104001251487766E12	1.891304347826087	-6.489130434782608	3.282608695652174	3956.043956043956	128.0	128.0	-3.2694897972929238	3.2571569987722637	-0.012332798520660226	492.9023620965913	591.7128159657498	-2.030534351145038	6.351145038167939	0.5343511450381679	0.17991004497751123	0.8305847076461769	0.952023988005997	
1.7104001251683083E12	1.9239130434782608	-6.445652173913043	3.2717391304347827	3956.043956043956	128.0	128.0	-3.2814619876697053	3.2714370812698705	-0.01002490639983492	492.9133245841652	591.7004831672291	-1.7862595419847327	7.770992366412213	0.5343511450381679	0.17091454272863568	0.8065967016491754	0.9550224887556221	
1.71040012518784E12	1.8695652173913042	-6.445652173913043	3.260869565217391	3957.5091575091574	128.0	128.0	-3.2852123123660464	3.27230254081518	-0.01290977155086655	492.91440640859685	591.7028631809787	-1.4809160305343512	8.198473282442748	0.9312977099236641	0.17091454272863568	0.8035982008995503	0.9475262368815592	
1.7104001252073718E12	1.858695652173913	-6.4021739130434785	3.2065217391304346	3954.5787545787543	128.0	128.0	-3.282904420245221	3.2751874059662116	-0.007717014279009614	492.9064730294315	591.699545586055	-1.297709923664122	7.877862595419847	0.5038167938931297	0.1874062968515742	0.8230884557721139	0.952023988005997	
1.7104001252269036E12	1.8369565217391304	-6.391304347826087	3.25	3956.043956043956	128.0	128.0	-3.2849238258509432	3.26458552653617	-0.020338299314773003	492.88512502731385	591.7012765051456	-2.0610687022900764	7.83206106870229	0.48854961832061067	0.18440779610194902	0.8095952023988006	0.9460269865067465	
1.7104001252464355E12	1.858695652173913	-6.413043478260869	3.25	3931.135531135531	128.0	128.0	-3.2814619876697053	3.2821110823286874	6.490946589821172E-4	492.9056075698862	591.6907467473444	-3.145038167938931	6.488549618320611	0.0916030534351145	0.17391304347826086	0.8245877061469266	0.9505247376311844	
1.7104001252659673E12	1.8695652173913042	-6.413043478260869	3.282608695652174	3957.5091575091574	128.0	128.0	-3.2725910273302827	3.2803080416092922	0.007717014279009614	492.8970250960619	591.6772600027633	-3.0381679389312977	6.961832061068702	0.0	0.1874062968515742	0.8230884557721139	0.9490254872563718	
1.710400125285499E12	1.8804347826086956	-6.434782608695652	3.293478260869565	3956.043956043956	128.0	128.0	-3.2865105016840106	3.310238517551246	0.02372801586723517	492.8939959876533	591.674807867385	-2.6564885496183206	7.251908396946565	0.183206106870229	0.17991004497751123	0.8125937031484257	0.95952023988006	
1.7104001253050308E12	1.858695652173913	-6.423913043478261	3.260869565217391	3956.043956043956	128.0	128.0	-3.2914147724407643	3.3224270728143543	0.03101230037359004	492.9059681780301	591.6550465411003	-2.183206106870229	7.297709923664121	0.15267175572519084	0.17241379310344826	0.8200899550224887	0.9490254872563718	
1.7104001253245625E12	1.858695652173913	-6.423913043478261	3.2282608695652173	3929.6703296703295	128.0	128.0	-3.289828096607697	3.322138586299251	0.03231048969155427	492.89082263598715	591.6659369070455	-1.8625954198473282	6.519083969465648	-0.10687022900763359	0.17391304347826086	0.8110944527736131	0.9580209895052474	
1.7104001253440942E12	1.826086956521739	-6.4021739130434785	3.293478260869565	3956.043956043956	128.0	128.0	-3.2719419326713006	3.3754364699645603	0.10349453729325979	492.8937075011382	591.6337706606115	-2.6412213740458013	6.061068702290076	0.1984732824427481	0.1634182908545727	0.8215892053973013	0.9580209895052474	
1.710400125363626E12	1.8804347826086956	-6.456521739130435	3.282608695652174	3954.5787545787543	128.0	128.0	-3.24179509184302	3.4202961230631024	0.1785010312200822	492.893130528108	591.6479064998516	-3.16030534351145	6.061068702290076	0.07633587786259542	0.1829085457271364	0.8065967016491754	0.9430284857571214	
1.7104001253831577E12	1.9021739130434783	-6.467391304347826	3.282608695652174	3954.5787545787543	128.0	128.0	-3.2109270347269816	3.4359465165074488	0.22501948178046727	492.8978905556072	591.6303809440591	-1.9389312977099236	5.129770992366412	0.2595419847328244	0.1829085457271364	0.8140929535232384	0.9550224887556221	
1.7104001254026895E12	1.9130434782608696	-6.413043478260869	3.293478260869565	3932.6007326007325	128.0	128.0	-3.236674456199939	3.4260658533651656	0.1893913971652266	492.8677437147789	591.6290106331123	-1.6946564885496183	5.3893129770992365	0.12213740458015267	0.1829085457271364	0.8215892053973013	0.9430284857571214	
1.7104001254222212E12	1.8804347826086956	-6.413043478260869	3.3152173913043477	3957.5091575091574	128.0	128.0	-3.2754037708525385	3.3585600088310255	0.08315623797848679	492.8761098237169	591.6258372814461	-2.9618320610687023	5.038167938931298	-0.030534351145038167	0.17991004497751123	0.815592203898051	0.9490254872563718	
1.7104001254417532E12	1.9130434782608696	-6.423913043478261	3.293478260869565	3954.5787545787543	128.0	128.0	-3.2869432314566653	3.357333941141837	0.0703907096851718	492.8857741219729	591.612350536865	-2.595419847328244	5.740458015267175	0.2748091603053435	0.1829085457271364	0.8290854572713643	0.9505247376311844	
1.710400125461285E12	1.9456521739130435	-6.423913043478261	3.3152173913043477	3953.113553113553	128.0	128.0	-3.29422751596302	3.36447398239064	0.07024646642762022	492.8621903493632	591.619779064629	-1.9083969465648853	5.267175572519084	0.5190839694656488	0.1664167916041979	0.8290854572713643	0.9505247376311844	
1.7104001254808167E12	1.934782608695652	-6.413043478260869	3.2717391304347827	3956.043956043956	128.0	128.0	-3.275980743882745	3.3258889109955923	0.04990816711284723	492.85267029436477	591.646464067276	-2.3664122137404577	4.99236641221374	0.2595419847328244	0.18440779610194902	0.8095952023988006	0.9460269865067465	
1.7104001255003484E12	1.9239130434782608	-6.434782608695652	3.3260869565217392	3956.043956043956	128.0	128.0	-2.9920378913924566	3.6572156735915753	0.6651777821991185	492.87055645830117	591.5701593840313	-2.778625954198473	5.343511450381679	0.47328244274809156	0.17691154422788605	0.815592203898051	0.952023988005997	
1.7104001255198801E12	1.9239130434782608	-6.445652173913043	3.3152173913043477	3954.5787545787543	128.0	128.0	-2.803295588886212	4.225173500200928	1.4218779113147153	492.86529157940055	591.1844529133383	-1.6946564885496183	5.6183206106870225	0.8244274809160305	0.1829085457271364	0.8290854572713643	0.9370314842578711	
1.7104001255394119E12	1.9456521739130435	-6.434782608695652	3.282608695652174	3956.043956043956	128.0	128.0	-3.2398478078660737	3.3578387925432676	0.11799098467719372	492.85656486231863	591.3611509038391	-1.2671755725190839	4.1679389312977095	0.7480916030534351	0.191904047976012	0.8230884557721139	0.9460269865067465	
1.7104001255589436E12	1.8804347826086956	-6.369565217391304	3.3478260869565215	3931.135531135531	128.0	128.0	-3.2461223895695674	3.4177718660559497	0.17164947648638207	492.8749558776565	591.633626417354	-1.3435114503816794	6.595419847328244	0.5038167938931297	0.17691154422788605	0.8200899550224887	0.9415292353823088	
1.7104001255784753E12	1.934782608695652	-6.358695652173913	3.260869565217391	3957.5091575091574	128.0	128.0	-3.242155699986899	3.443014436127476	0.20085873614057734	492.88043712144344	591.6508634866314	-3.480916030534351	4.2748091603053435	0.6870229007633587	0.17691154422788605	0.8275862068965517	0.9460269865067465	
1.710400125598007E12	1.891304347826087	-6.391304347826087	3.3043478260869565	3956.043956043956	128.0	128.0	-3.2494399844932538	3.454842383246706	0.20540239875345218	492.92233978776216	591.674158772726	-1.8778625954198473	7.893129770992366	0.5801526717557252	0.17391304347826086	0.8365817091454273	0.9505247376311844	
1.7104001256175388E12	1.9782608695652173	-6.358695652173913	3.25	3954.5787545787543	128.0	128.0	-3.260113985552071	3.499052941686266	0.23893895613419489	492.90308331287906	591.6815873004898	-2.916030534351145	5.312977099236641	1.0076335877862594	0.1649175412293853	0.8305847076461769	0.9460269865067465	
1.7104001256370708E12	1.9130434782608696	-6.467391304347826	3.3152173913043477	3954.5787545787543	128.0	128.0	-3.2298950230950147	3.5044620638444504	0.27456704074943555	492.9180124900356	591.703440154009	-6.061068702290076	6.717557251908397	0.8549618320610687	0.18590704647676162	0.8065967016491754	0.9610194902548725	
1.7104001256566025E12	1.9239130434782608	-6.554347826086956	3.3152173913043477	3954.5787545787543	128.0	128.0	-3.225423482110916	3.5416047026639825	0.3161812205530668	492.90719424571927	591.7215426828317	-5.862595419847328	4.702290076335878	0.5343511450381679	0.18590704647676162	0.8365817091454273	0.9505247376311844	
1.7104001256761343E12	1.9130434782608696	-6.478260869565217	3.3043478260869565	3956.043956043956	128.0	128.0	-3.211792494272291	3.5643230157283563	0.3525305214560654	492.89551054185756	591.7514010371448	-2.198473282442748	4.687022900763359	0.6106870229007634	0.1829085457271364	0.8185907046476761	0.9505247376311844	
1.710400125695666E12	1.9456521739130435	-6.423913043478261	3.2282608695652173	3956.043956043956	128.0	128.0	-3.154888529168192	3.603052330380956	0.44816380121276395	492.90957425946885	591.8098195564532	-2.16793893129771	4.687022900763359	0.5190839694656488	0.17091454272863568	0.8320839580209894	0.9400299850074962	
1.7104001257151978E12	1.9456521739130435	-6.380434782608695	3.2717391304347827	3931.135531135531	128.0	128.0	-3.1092355381531167	3.6285112653388105	0.5192757271856937	492.9115936650746	591.8393173026225	-2.931297709923664	5.511450381679389	0.7633587786259541	0.17841079460269865	0.8185907046476761	0.9550224887556221	
1.7104001257347295E12	1.891304347826087	-6.380434782608695	3.3152173913043477	3956.043956043956	128.0	128.0	-3.040936355702443	3.6970989343045875	0.6561625786021446	492.88187955401895	591.8706180895113	-2.4580152671755724	5.145038167938931	0.9465648854961831	0.17391304347826086	0.8185907046476761	0.9370314842578711	
1.7104001257542612E12	1.9456521739130435	-6.380434782608695	3.3043478260869565	3954.5787545787543	128.0	128.0	-3.0165592451762255	3.725947585814904	0.7093883406386782	492.8829613784506	591.8242438822084	-2.763358778625954	5.114503816793893	0.9007633587786259	0.17691154422788605	0.8230884557721139	0.9490254872563718	
1.710400125773793E12	1.9456521739130435	-6.4021739130434785	3.3260869565217392	3954.5787545787543	128.0	128.0	-3.1124810114480272	3.714047517066898	0.6015665056188709	492.89709721769066	591.6949298018134	-2.854961832061069	6.061068702290076	1.129770992366412	0.18440779610194902	0.8305847076461769	0.9490254872563718	
1.7104001257933247E12	1.967391304347826	-6.423913043478261	3.293478260869565	3956.043956043956	128.0	128.0	-3.2068161018867616	3.666591485332428	0.45977538344566626	492.8942123525396	591.6308857954605	-2.610687022900763	5.786259541984733	1.0687022900763359	0.17991004497751123	0.8095952023988006	0.9490254872563718	
1.7104001258128567E12	1.934782608695652	-6.380434782608695	3.3260869565217392	3956.043956043956	128.0	128.0	-3.2943717592205717	3.6253379136726758	0.3309661544521039	492.9076269754919	591.5747030466441	-2.427480916030534	6.687022900763359	1.2061068702290076	0.1829085457271364	0.8215892053973013	0.9550224887556221	
1.7104001258323884E12	1.9021739130434783	-6.4021739130434785	3.3043478260869565	3954.5787545787543	128.0	128.0	-3.299348151606101	3.6039177899262658	0.3045696383201645	492.91296397602133	591.5770830603938	-2.748091603053435	7.6183206106870225	1.083969465648855	0.17691154422788605	0.8230884557721139	0.952023988005997	
1.7104001258519202E12	1.9130434782608696	-6.391304347826087	3.260869565217391	3954.5787545787543	128.0	128.0	-3.3044687872491822	3.609038425569347	0.3045696383201645	492.89154385227494	591.5628029778961	-2.931297709923664	6.854961832061068	0.9618320610687022	0.18440779610194902	0.8350824587706147	0.9460269865067465	
1.710400125871452E12	1.934782608695652	-6.391304347826087	3.25	3931.135531135531	128.0	128.0	-3.3038196925902	3.6142311828412037	0.31041149025100356	492.90221785333375	591.5628029778961	-2.732824427480916	6.1679389312977095	1.3740458015267174	0.1874062968515742	0.815592203898051	0.952023988005997	
1.7104001258909836E12	1.934782608695652	-6.3478260869565215	3.293478260869565	3956.043956043956	128.0	128.0	-3.3074978956577654	3.6238954810971595	0.31639758543939417	492.91281973276375	591.5534271661553	-1.2519083969465647	7.938931297709924	1.3129770992366412	0.17091454272863568	0.8245877061469266	0.9475262368815592	
1.7104001259105154E12	1.9782608695652173	-6.33695652173913	3.152173913043478	3956.043956043956	128.0	128.0	-3.3036033277038728	3.6174045345073385	0.31380120680346574	492.91080032715803	591.5646060186156	-1.6946564885496183	5.480916030534351	0.7480916030534351	0.18440779610194902	0.8305847076461769	0.9385307346326837	
1.710400125930047E12	1.8804347826086956	-6.358695652173913	3.391304347826087	3956.043956043956	128.0	128.0	-3.3067766793700075	3.637237982420681	0.3304613030506734	492.9234216121938	591.5483065305121	-4.7328244274809155	9.038167938931297	0.7175572519083969	0.17391304347826086	0.8185907046476761	0.9550224887556221	
1.7104001259495789E12	1.934782608695652	-6.434782608695652	3.3804347826086953	3956.043956043956	128.0	128.0	-3.3081469903167475	3.654475051698095	0.34632806138134736	492.9159209628011	591.558980531571	-3.2671755725190836	5.816793893129771	0.732824427480916	0.17091454272863568	0.8140929535232384	0.9475262368815592	
1.7104001259691106E12	1.934782608695652	-6.423913043478261	3.3478260869565215	3954.5787545787543	128.0	128.0	-3.3088682066045054	3.6593793224548485	0.3505111158503432	492.90943001621133	591.5385701106275	-2.687022900763359	7.251908396946565	0.21374045801526717	0.19490254872563717	0.8350824587706147	0.9490254872563718	
1.7104001259886423E12	1.9239130434782608	-6.456521739130435	3.3152173913043477	3956.043956043956	128.0	128.0	-3.312618531300847	3.66175933620445	0.3491408049036032	492.90416513731066	591.5261651904781	-3.5114503816793894	8.854961832061068	0.4580152671755725	0.17991004497751123	0.8095952023988006	0.95952023988006	
1.7104001260081743E12	1.8804347826086956	-6.456521739130435	3.282608695652174	3956.043956043956	128.0	128.0	-3.3137724773612596	3.6598120522275037	0.3460395748662442	492.89385174439576	591.5252997309327	-2.748091603053435	8.442748091603054	0.8244274809160305	0.17391304347826086	0.8320839580209894	0.9475262368815592	
1.710400126027706E12	1.891304347826087	-6.380434782608695	3.293478260869565	3932.6007326007325	128.0	128.0	-3.3248070865639554	3.6652932960144637	0.34048620945050834	492.89652024466045	591.5164287705933	-1.648854961832061	7.740458015267175	0.7022900763358778	0.1829085457271364	0.8290854572713643	0.9550224887556221	
1.7104001260472378E12	1.9021739130434783	-6.413043478260869	3.358695652173913	3957.5091575091574	128.0	128.0	-3.329422870805606	3.674452742868989	0.34502987206338315	492.8879377708361	591.5069808372236	-3.1755725190839694	8.366412213740457	1.129770992366412	0.16941529235382308	0.8200899550224887	0.9415292353823088	
1.7104001260667695E12	1.891304347826087	-6.434782608695652	3.3043478260869565	3956.043956043956	128.0	128.0	-3.3349762362213418	3.6756788105581775	0.3407025743368357	492.91289185439257	591.4985426066569	-3.068702290076336	7.603053435114504	0.7480916030534351	0.17241379310344826	0.8275862068965517	0.9460269865067465	
1.7104001260863013E12	1.8804347826086956	-6.391304347826087	3.358695652173913	3950.18315018315	128.0	128.0	-3.3530787650440654	3.7080614218785075	0.35498265683444225	492.9061845429164	591.5011389852929	-2.4885496183206106	7.312977099236641	0.7022900763358778	0.18440779610194902	0.8095952023988006	0.952023988005997	
1.710400126105833E12	1.8695652173913042	-6.413043478260869	3.369565217391304	3956.043956043956	128.0	128.0	-3.353295129930393	3.693132244721919	0.3398371147915262	492.9279652748067	591.4839740376442	-3.312977099236641	7.190839694656488	0.4580152671755725	0.18440779610194902	0.8200899550224887	0.952023988005997	
1.7104001261253647E12	1.891304347826087	-6.413043478260869	3.260869565217391	3957.5091575091574	128.0	128.0	-3.3486072240599665	3.697964393849897	0.3493571697899306	492.9157045979148	591.4908255923779	-2.763358778625954	7.083969465648854	0.6106870229007634	0.19040479760119938	0.8140929535232384	0.9475262368815592	
1.7104001261448965E12	1.9130434782608696	-6.4021739130434785	3.3369565217391304	3954.5787545787543	128.0	128.0	-3.356324238338976	3.745131939069264	0.38880770073028814	492.9445532494251	591.4909698356355	-2.6412213740458013	7.007633587786259	0.5343511450381679	0.17391304347826086	0.8320839580209894	0.9580209895052474	
1.7104001261644282E12	1.9130434782608696	-6.423913043478261	3.369565217391304	3956.043956043956	128.0	128.0	-3.3377889797435976	3.774124833837132	0.43633585409353426	492.92630647734484	591.4899601328326	-3.7404580152671754	7.557251908396946	0.5190839694656488	0.16941529235382308	0.8125937031484257	0.9565217391304347	
1.71040012618396E12	1.891304347826087	-6.445652173913043	3.3804347826086953	3929.6703296703295	128.0	128.0	-3.304180300734079	3.799872255310089	0.4956919545760101	492.95032297972716	591.4592363189741	-4.045801526717557	6.854961832061068	0.48854961832061067	0.17691154422788605	0.8050974512743628	0.9640179910044977	
1.710400126203492E12	1.9021739130434783	-6.413043478260869	3.358695652173913	3956.043956043956	128.0	128.0	-3.3346877497062386	3.7561665482719597	0.42147879856572135	492.9660454948003	591.4581544945424	-3.1908396946564883	6.488549618320611	0.549618320610687	0.17841079460269865	0.8215892053973013	0.9505247376311844	
1.7104001262230237E12	1.8804347826086956	-6.4021739130434785	3.358695652173913	3956.043956043956	128.0	128.0	-3.371758266896995	3.710946287029539	0.33918802013254407	492.965180035255	591.4520241560965	-3.9389312977099236	7.435114503816793	0.564885496183206	0.19490254872563717	0.8380809595202399	0.9460269865067465	
1.7104001262425554E12	1.9130434782608696	-6.4021739130434785	3.3152173913043477	3954.5787545787543	128.0	128.0	-3.3744988887904754	3.707628692105853	0.33312980331537767	492.9946056597955	591.457649643141	-3.633587786259542	6.5038167938931295	0.7022900763358778	0.16941529235382308	0.8200899550224887	0.9460269865067465	
1.7104001262620872E12	1.9456521739130435	-6.391304347826087	3.3043478260869565	3956.043956043956	128.0	128.0	-3.3909426201513555	3.710369313999333	0.3194266938479774	492.96200668358887	591.4520962777253	-3.145038167938931	6.442748091603053	0.9618320610687022	0.1874062968515742	0.8275862068965517	0.952023988005997	
1.710400126281619E12	1.9021739130434783	-6.434782608695652	3.3260869565217392	3954.5787545787543	128.0	128.0	-3.4032754186720156	3.6542586868117675	0.25098326813975197	492.9351053160555	591.5166451354796	-4.076335877862595	6.809160305343511	0.6717557251908397	0.1619190404797601	0.8275862068965517	0.9565217391304347	
1.7104001263011506E12	1.934782608695652	-6.434782608695652	3.358695652173913	3954.5787545787543	128.0	128.0	-3.2333568612762527	3.837231259015949	0.6038743977396963	492.9359707756008	591.5590526531998	-4.1679389312977095	6.5038167938931295	0.6870229007633587	0.18440779610194902	0.8095952023988006	0.9490254872563718	
1.7104001263206824E12	1.934782608695652	-6.456521739130435	3.369565217391304	3956.043956043956	128.0	128.0	-2.972060200221563	4.535224382308052	1.5631641820864897	492.95529937211273	591.0197271132145	-3.3893129770992365	7.068702290076335	0.732824427480916	0.18440779610194902	0.8125937031484257	0.952023988005997	
1.710400126340214E12	1.9456521739130435	-6.434782608695652	3.25	3929.6703296703295	128.0	128.0	-3.402049350982827	3.6538259570391127	0.25177660605628566	492.9568860479458	591.2264277012858	-2.9618320610687023	6.213740458015267	0.5190839694656488	0.17091454272863568	0.8035982008995503	0.9505247376311844	
1.7104001263597458E12	1.891304347826087	-6.358695652173913	3.3804347826086953	3957.5091575091574	128.0	128.0	-3.3861825926521534	3.766479941186898	0.38029734853474484	492.96323275127804	591.4955856198771	-4.137404580152672	6.625954198473282	0.22900763358778625	0.1664167916041979	0.8320839580209894	0.9430284857571214	
1.7104001263792778E12	1.891304347826087	-6.434782608695652	3.3369565217391304	3956.043956043956	128.0	128.0	-3.364834590534519	3.759339899938095	0.3945053094035756	492.9641703324521	591.5121014728668	-6.091603053435114	7.893129770992366	0.42748091603053434	0.17391304347826086	0.8245877061469266	0.9505247376311844	
1.7104001263988096E12	1.9456521739130435	-6.369565217391304	3.260869565217391	3954.5787545787543	128.0	128.0	-3.3609400225806265	3.7843661051232944	0.4234260825426677	492.9501066148409	591.5258045823341	-2.229007633587786	6.931297709923664	0.6870229007633587	0.17691154422788605	0.8200899550224887	0.9385307346326837	
1.7104001264183413E12	1.9565217391304348	-6.3478260869565215	3.293478260869565	3929.6703296703295	128.0	128.0	-3.3557472653087697	3.7974201199317124	0.4416728546229428	492.9299846804124	591.5324397721815	-3.633587786259542	8.687022900763358	0.8702290076335878	0.16941529235382308	0.8200899550224887	0.952023988005997	
1.710400126437873E12	1.934782608695652	-6.434782608695652	3.217391304347826	3956.043956043956	128.0	128.0	-3.3423326423564723	3.804343796294188	0.4620111539377158	492.9232773689363	591.5397961783167	-5.893129770992366	7.969465648854961	0.6259541984732824	0.17691154422788605	0.8275862068965517	0.952023988005997	
1.7104001264574048E12	1.891304347826087	-6.478260869565217	3.3369565217391304	3956.043956043956	128.0	128.0	-3.3169458290273943	3.831822136857765	0.5148763078303704	492.94296657359206	591.5743424385003	-6.3969465648854955	7.816793893129771	0.6870229007633587	0.17391304347826086	0.8245877061469266	0.9295352323838081	
1.7104001264769365E12	1.9130434782608696	-6.5	3.3152173913043477	3957.5091575091574	128.0	128.0	-3.281173501154602	3.8355003399253302	0.554326838770728	492.9370526000324	591.5899928319446	-5.3893129770992365	6.106870229007633	0.5954198473282443	0.1664167916041979	0.8245877061469266	0.9550224887556221	
1.7104001264964683E12	1.934782608695652	-6.456521739130435	3.25	3931.135531135531	128.0	128.0	-3.2330683747611495	3.88519214215185	0.6521237673907003	492.94664477665964	591.6629799202657	-4.381679389312977	6.7328244274809155	0.4580152671755725	0.1874062968515742	0.8050974512743628	0.9385307346326837	
1.710400126516E12	1.9456521739130435	-6.423913043478261	3.260869565217391	3957.5091575091574	128.0	128.0	-3.1840977888223874	3.910867441996031	0.7267696531736437	492.95674180468825	591.7015649916608	-3.3740458015267176	7.206106870229007	0.732824427480916	0.17841079460269865	0.8245877061469266	0.9580209895052474	
1.7104001265355317E12	1.9130434782608696	-6.369565217391304	3.25	3956.043956043956	128.0	128.0	-3.1276986751197193	3.9598380279347936	0.8321393528150741	492.9522702637041	591.6999783158277	-3.7557251908396947	7.66412213740458	0.5343511450381679	0.18590704647676162	0.8065967016491754	0.9505247376311844	
1.7104001265550635E12	1.9239130434782608	-6.358695652173913	3.2282608695652173	3954.5787545787543	128.0	128.0	-3.119044079666624	3.9751999348640368	0.8561558551974124	492.9964087005149	591.658075649509	-3.7404580152671754	7.083969465648854	0.6259541984732824	0.17091454272863568	0.8185907046476761	0.9685157421289355	
1.7104001265745955E12	1.9239130434782608	-6.413043478260869	3.2717391304347827	3956.043956043956	128.0	128.0	-3.178111693633997	3.9521931352845594	0.7740814416505626	492.9694352113528	591.5688611947133	-4.183206106870228	7.251908396946565	0.2748091603053435	0.17691154422788605	0.815592203898051	0.952023988005997	
1.7104001265941272E12	1.9239130434782608	-6.413043478260869	3.3043478260869565	3942.8571428571427	128.0	128.0	-3.3227876809582333	3.8805042362814235	0.5577165553231902	492.9786667798361	591.4717133607523	-4.778625954198473	7.465648854961832	0.8549618320610687	0.18440779610194902	0.8275862068965517	0.9490254872563718	
1.710400126613659E12	1.9130434782608696	-6.434782608695652	3.3043478260869565	3954.5787545787543	128.0	128.0	-3.376662537653749	3.8305239475398007	0.45386140988605145	492.9541454260523	591.4409895468938	-4.137404580152672	6.946564885496183	0.732824427480916	0.1649175412293853	0.8230884557721139	0.9490254872563718	
1.7104001266331907E12	1.9782608695652173	-6.445652173913043	3.282608695652174	3956.043956043956	128.0	128.0	-3.4141657846171602	3.8208596492838445	0.4066938646666843	492.9070500024617	591.4169009228827	-4.122137404580153	6.946564885496183	0.42748091603053434	0.1634182908545727	0.8185907046476761	0.9580209895052474	
1.7104001266527224E12	1.9239130434782608	-6.456521739130435	3.282608695652174	3931.135531135531	128.0	128.0	-3.4076027163985634	3.7933091870914923	0.3857064706929291	492.91354094905154	591.4088233004599	-3.877862595419847	6.702290076335878	0.47328244274809156	0.17691154422788605	0.8230884557721139	0.9460269865067465	
1.7104001266722542E12	1.9239130434782608	-6.467391304347826	3.2391304347826084	3954.5787545787543	128.0	128.0	-3.4144542711322634	3.7943188898943534	0.3798646187620901	492.91260336787747	591.3867540820544	-3.5572519083969465	6.259541984732824	0.5190839694656488	0.17691154422788605	0.8200899550224887	0.9490254872563718	
1.710400126691786E12	1.9021739130434783	-6.423913043478261	3.3478260869565215	3954.5787545787543	128.0	128.0	-3.4333501378715203	3.8101135265962514	0.3767633887247311	492.9166421790889	591.3658388097094	-2.916030534351145	7.343511450381679	0.2595419847328244	0.1649175412293853	0.815592203898051	0.9460269865067465	
1.7104001267113176E12	1.9565217391304348	-6.4021739130434785	3.1630434782608696	3953.113553113553	128.0	128.0	-3.432051948553556	3.820138432996086	0.38808648444253024	492.8994051098115	591.3678582153152	-2.2442748091603053	4.106870229007633	0.5190839694656488	0.17841079460269865	0.8140929535232384	0.9550224887556221	
1.7104001267308494E12	1.891304347826087	-6.3478260869565215	3.3260869565217392	3954.5787545787543	128.0	128.0	-3.4282295022284393	3.817469932731382	0.3892404305029429	492.9160652060587	591.3629539445584	-3.145038167938931	8.045801526717558	0.564885496183206	0.18440779610194902	0.815592203898051	0.952023988005997	
1.710400126750381E12	1.9456521739130435	-6.456521739130435	3.293478260869565	3956.043956043956	128.0	128.0	-3.4335665027578477	3.8254033118967192	0.39183680913887137	492.9291192208671	591.3694448911482	-5.114503816793893	6.229007633587786	0.7022900763358778	0.17091454272863568	0.8110944527736131	0.9505247376311844	
1.710400126769913E12	1.9565217391304348	-6.445652173913043	3.3152173913043477	3954.5787545787543	128.0	128.0	-3.4205124879494297	3.8298027312520424	0.4092902433026127	492.92890285598077	591.3523520651283	-3.9847328244274807	5.740458015267175	0.2748091603053435	0.17091454272863568	0.8140929535232384	0.9475262368815592	
1.7104001267894448E12	1.934782608695652	-6.467391304347826	3.3369565217391304	3954.5787545787543	128.0	128.0	-3.427291921054354	3.833408812690832	0.4061168916364779	492.8832498649657	591.371464296754	-3.3893129770992365	6.564885496183206	0.366412213740458	0.15892053973013492	0.8215892053973013	0.9475262368815592	
1.7104001268089766E12	1.934782608695652	-6.456521739130435	3.282608695652174	3929.6703296703295	128.0	128.0	-3.4298161780615066	3.835716704811657	0.40590052675015054	492.884115324511	591.3667042692548	-3.5114503816793894	6.8396946564885495	0.48854961832061067	0.17991004497751123	0.8275862068965517	0.9565217391304347	
1.7104001268285083E12	1.9565217391304348	-6.445652173913043	3.260869565217391	3956.043956043956	128.0	128.0	-3.430393151091713	3.8212202574277234	0.3908271063360103	492.88014863492833	591.3617278768693	-2.6717557251908395	6.809160305343511	0.9007633587786259	0.1874062968515742	0.8350824587706147	0.9460269865067465	
1.71040012684804E12	1.9456521739130435	-6.423913043478261	3.3043478260869565	3956.043956043956	128.0	128.0	-3.4383265302570503	3.823383906290997	0.385057376033947	492.90308331287906	591.3563187547111	-2.946564885496183	6.946564885496183	0.8244274809160305	0.1649175412293853	0.8125937031484257	0.952023988005997	
1.7104001268675718E12	1.934782608695652	-6.4021739130434785	3.260869565217391	3953.113553113553	128.0	128.0	-3.441572003551961	3.831533650342662	0.3899616467907008	492.89861177189493	591.3543714707341	-3.3740458015267176	6.641221374045801	0.8549618320610687	0.18590704647676162	0.8245877061469266	0.9505247376311844	
1.7104001268871035E12	1.967391304347826	-6.391304347826087	3.282608695652174	3956.043956043956	128.0	128.0	-3.4365234895376555	3.825980284926926	0.38945679538927025	492.88570200034405	591.3292731439201	-2.8702290076335877	6.229007633587786	0.7633587786259541	0.17691154422788605	0.8020989505247376	0.9385307346326837	
1.7104001269066353E12	1.934782608695652	-6.391304347826087	3.2391304347826084	3956.043956043956	128.0	128.0	-3.447702341997903	3.8401882457957566	0.3924859037978535	492.90986274598396	591.3348265093358	-3.5725190839694654	6.7328244274809155	0.8549618320610687	0.1874062968515742	0.8350824587706147	0.9340329835082458	
1.710400126926167E12	1.9239130434782608	-6.413043478260869	3.2391304347826084	3954.5787545787543	128.0	128.0	-3.4467647608238177	3.837663988788604	0.3908992279647861	492.904381502197	591.3451399022508	-3.66412213740458	6.564885496183206	0.7786259541984732	0.17991004497751123	0.8275862068965517	0.9460269865067465	
1.710400126945699E12	1.934782608695652	-6.413043478260869	3.25	3956.043956043956	128.0	128.0	-3.4447453552180956	3.841702800000048	0.3969574447819525	492.91260336787747	591.3329513469877	-3.618320610687023	6.793893129770992	1.099236641221374	0.15592203898050974	0.8245877061469266	0.9475262368815592	
1.7104001269652307E12	1.967391304347826	-6.434782608695652	3.293478260869565	3931.135531135531	128.0	128.0	-3.444312625445441	3.844876151666183	0.40056352622074204	492.92089735518664	591.326099792254	-3.9541984732824424	6.748091603053435	1.2366412213740459	0.17841079460269865	0.8185907046476761	0.9610194902548725	
1.7104001269847625E12	1.934782608695652	-6.467391304347826	3.260869565217391	3956.043956043956	128.0	128.0	-3.4515969099517956	3.8564156122703093	0.4048187023185137	492.9240707068528	591.3214840080124	-3.3740458015267176	6.824427480916031	1.099236641221374	0.17691154422788605	0.8125937031484257	0.95952023988006	
1.7104001270042942E12	1.9565217391304348	-6.456521739130435	3.282608695652174	3954.5787545787543	128.0	128.0	-3.436739854423983	3.855838639240103	0.4190987848161203	492.9350331944267	591.3121081962715	-3.32824427480916	6.564885496183206	0.8854961832061068	0.17091454272863568	0.8065967016491754	0.9370314842578711	
1.710400127023826E12	1.934782608695652	-6.434782608695652	3.2391304347826084	3951.6483516483513	128.0	128.0	-3.433782867644175	3.860670788368081	0.4268879207239057	492.9353938025706	591.3154257911951	-3.145038167938931	6.3969465648854955	1.114503816793893	0.18440779610194902	0.815592203898051	0.95952023988006	
1.7104001270433577E12	1.9456521739130435	-6.423913043478261	3.2282608695652173	3956.043956043956	128.0	128.0	-3.430393151091713	3.936037890438782	0.5056447393470692	492.9198876523838	591.3126851693017	-3.16030534351145	6.534351145038167	1.0229007633587786	0.17241379310344826	0.8380809595202399	0.952023988005997	
1.7104001270628894E12	1.9456521739130435	-6.434782608695652	3.3043478260869565	3956.043956043956	128.0	128.0	-3.38589410613705	3.9452694589220836	0.5593753527850334	492.9106560839005	591.2945105188502	-3.099236641221374	7.221374045801526	1.2366412213740459	0.17841079460269865	0.8185907046476761	0.9400299850074962	
1.7104001270824211E12	1.9456521739130435	-6.445652173913043	3.293478260869565	3954.5787545787543	128.0	128.0	-3.3667097528826897	3.9704399073648347	0.6037301544821447	492.9272440585189	591.2869377478287	-3.297709923664122	7.251908396946565	0.9770992366412213	0.16941529235382308	0.8200899550224887	0.952023988005997	
1.710400127101953E12	1.934782608695652	-6.423913043478261	3.3043478260869565	3954.5787545787543	128.0	128.0	-3.397938418142607	3.9221184160850546	0.5241799979424474	492.95190965556026	591.2947990053653	-3.282442748091603	7.129770992366412	0.916030534351145	0.18590704647676162	0.8110944527736131	0.9430284857571214	
1.7104001271214846E12	1.9130434782608696	-6.413043478260869	3.260869565217391	3929.6703296703295	128.0	128.0	-3.4332780162427445	3.876753911585082	0.44347589534233756	492.9248640447693	591.292635356502	-2.717557251908397	7.343511450381679	0.6564885496183206	0.17841079460269865	0.8185907046476761	0.9475262368815592	
1.7104001271410166E12	1.9456521739130435	-6.391304347826087	3.184782608695652	3956.043956043956	128.0	128.0	-3.433854989272951	3.87747512787284	0.44362013859988914	492.92933558575345	591.2919141402143	-2.717557251908397	6.870229007633587	0.8244274809160305	0.17391304347826086	0.8065967016491754	0.9400299850074962	
1.7104001271605483E12	1.9565217391304348	-6.413043478260869	3.260869565217391	3956.043956043956	128.0	128.0	-3.4318355836672287	3.8761769385548757	0.44434135488764703	492.90971850272643	591.29393354582	-2.4732824427480917	6.961832061068702	0.916030534351145	0.16941529235382308	0.8350824587706147	0.9490254872563718	
1.71040012718008E12	1.9021739130434783	-6.456521739130435	3.25	3950.18315018315	128.0	128.0	-3.4378938004843955	3.819994189738535	0.3821003892541396	492.91368519230906	591.3726903644432	-4.152671755725191	7.66412213740458	1.0381679389312977	0.1934032983508246	0.8320839580209894	0.9580209895052474	
1.7104001271996118E12	1.9239130434782608	-6.467391304347826	3.2282608695652173	3956.043956043956	128.0	128.0	-3.202921533932869	4.105090988289236	0.902169454356367	492.91981553075505	591.2810958958979	-3.297709923664122	7.2824427480916025	0.7633587786259541	0.1664167916041979	0.8140929535232384	0.9430284857571214	
1.7104001272191436E12	1.9456521739130435	-6.445652173913043	3.282608695652174	3956.043956043956	128.0	128.0	-3.0462012346030756	4.553687519274654	1.507486284671579	492.92147432821685	590.8378363654418	-2.198473282442748	7.633587786259541	0.8396946564885496	0.17391304347826086	0.8140929535232384	0.9580209895052474	
1.7104001272386753E12	1.967391304347826	-6.445652173913043	3.141304347826087	3954.5787545787543	128.0	128.0	-3.4304652727204887	3.8042716746654124	0.37380640194492365	492.9099348676127	591.1250968128559	-3.0381679389312977	7.66412213740458	0.7786259541984732	0.17691154422788605	0.815592203898051	0.9460269865067465	
1.710400127258207E12	1.8369565217391304	-6.413043478260869	3.3804347826086953	3956.043956043956	128.0	128.0	-3.3872644170837902	3.933008782030199	0.5457443649464089	492.9082039485221	591.3261719138827	-2.4885496183206106	7.49618320610687	0.5190839694656488	0.16941529235382308	0.8230884557721139	0.9490254872563718	
1.7104001272777388E12	1.8804347826086956	-6.467391304347826	3.217391304347826	3931.135531135531	128.0	128.0	-3.383946822160104	3.925436011008741	0.5414891888486373	492.928830734352	591.3460774834249	-5.740458015267175	6.870229007633587	0.8091603053435115	0.17841079460269865	0.8140929535232384	0.9430284857571214	
1.7104001272972705E12	1.9021739130434783	-6.358695652173913	3.3369565217391304	3957.5091575091574	128.0	128.0	-3.3854613763643955	3.956087703238452	0.5706263268740567	492.9022899749625	591.3677860936864	-0.5190839694656488	7.251908396946565	0.8091603053435115	0.15892053973013492	0.8215892053973013	0.9400299850074962	
1.7104001273168022E12	1.9021739130434783	-6.4021739130434785	3.1956521739130435	3954.5787545787543	128.0	128.0	-3.3685127936020844	3.950894945966595	0.5823821523645106	492.8978905556072	591.3654782015656	-2.3206106870229006	7.145038167938931	1.5877862595419847	0.191904047976012	0.8350824587706147	0.9415292353823088	
1.7104001273363342E12	1.8478260869565217	-6.423913043478261	3.25	3950.18315018315	128.0	128.0	-3.366926117769017	3.981618759825082	0.6146926420560649	492.909213651325	591.3840855817897	-4.351145038167939	6.412213740458015	1.4045801526717556	0.17391304347826086	0.8290854572713643	0.9550224887556221	
1.710400127355866E12	1.9130434782608696	-6.445652173913043	3.358695652173913	3956.043956043956	128.0	128.0	-3.3596418332626623	4.018905641902166	0.6592638086395036	492.9124591246199	591.4178385040568	-4.763358778625954	6.061068702290076	1.1603053435114503	0.17691154422788605	0.8230884557721139	0.952023988005997	
1.7104001273753977E12	1.967391304347826	-6.434782608695652	3.2282608695652173	3956.043956043956	128.0	128.0	-3.3250955730790586	4.033113602770997	0.7080180296919382	492.916281570945	591.4382489250004	-3.450381679389313	3.9083969465648853	1.3740458015267174	0.17691154422788605	0.8200899550224887	0.9640179910044977	
1.7104001273949294E12	1.9782608695652173	-6.423913043478261	3.282608695652174	3956.043956043956	128.0	128.0	-3.277278933200709	4.082084188709759	0.8048052555090495	492.92032038215643	591.5009947420352	-4.076335877862595	5.740458015267175	0.8702290076335878	0.17991004497751123	0.8200899550224887	0.95952023988006	
1.7104001274144612E12	1.934782608695652	-6.434782608695652	3.217391304347826	3956.043956043956	128.0	128.0	-3.2361696047985085	4.110788596962523	0.874618992164015	492.9139015571954	591.5299876368032	-3.969465648854962	6.045801526717557	0.9312977099236641	0.17991004497751123	0.8230884557721139	0.952023988005997	
1.710400127433993E12	1.9130434782608696	-6.434782608695652	3.25	3931.135531135531	128.0	128.0	-3.167365570946404	4.146128195062661	0.9787626241162568	492.92378222033767	591.5438349895281	-3.0076335877862594	5.633587786259541	0.7938931297709924	0.16941529235382308	0.815592203898051	0.9340329835082458	
1.7104001274535247E12	1.9239130434782608	-6.380434782608695	3.25	3956.043956043956	128.0	128.0	-3.1720534768168305	4.167836805324174	0.9957833285073434	492.92183493636077	591.481449780637	-3.679389312977099	6.030534351145038	0.8702290076335878	0.17391304347826086	0.8290854572713643	0.9475262368815592	
1.7104001274730564E12	1.9565217391304348	-6.380434782608695	3.25	3956.043956043956	128.0	128.0	-3.212802197075152	4.125789895747888	0.9129876986727355	492.92572950431463	591.3860328657667	-3.5572519083969465	5.66412213740458	0.6870229007633587	0.18590704647676162	0.8110944527736131	0.9580209895052474	
1.7104001274925881E12	1.967391304347826	-6.369565217391304	3.2391304347826084	3950.18315018315	128.0	128.0	-3.361156387466954	4.058644659357626	0.6974882718906728	492.9079875836358	591.289750491351	-3.5725190839694654	6.152671755725191	0.41221374045801523	0.17991004497751123	0.8200899550224887	0.9640179910044977	
1.71040012751212E12	1.9565217391304348	-6.413043478260869	3.2717391304347827	3956.043956043956	128.0	128.0	-3.418781568858811	4.019122006788494	0.6003404379296825	492.9014245154172	591.2504442036682	-4.351145038167939	7.694656488549618	0.8244274809160305	0.18590704647676162	0.8245877061469266	0.9580209895052474	
1.7104001275316519E12	1.9456521739130435	-6.456521739130435	3.260869565217391	3954.5787545787543	128.0	128.0	-3.443879895672786	3.981618759825082	0.5377388641522961	492.91382943556664	591.2350101751101	-3.2061068702290076	7.49618320610687	0.5190839694656488	0.17091454272863568	0.8110944527736131	0.9550224887556221	
1.7104001275511836E12	1.9565217391304348	-6.467391304347826	3.260869565217391	3954.5787545787543	128.0	128.0	-3.4489284096870914	3.9731805292583147	0.5242521195712232	492.9023620965913	591.2448908382524	-2.8396946564885495	7.435114503816793	0.4427480916030534	0.17091454272863568	0.8110944527736131	0.9505247376311844	
1.7104001275707153E12	1.9021739130434783	-6.521739130434782	3.1630434782608696	3956.043956043956	128.0	128.0	-3.4540490453301724	3.9739017455460726	0.5198527002159	492.9097906243552	591.2369574590871	-2.4732824427480917	7.2824427480916025	0.3511450381679389	0.17691154422788605	0.8200899550224887	0.9565217391304347	
1.710400127590247E12	1.8804347826086956	-6.423913043478261	3.3152173913043477	3931.135531135531	128.0	128.0	-3.4581599781703924	3.9860181791804052	0.5278582010100128	492.90221785333375	591.2285192285203	-2.030534351145038	6.045801526717557	0.16793893129770993	0.17391304347826086	0.8140929535232384	0.9580209895052474	
1.7104001276097788E12	1.9130434782608696	-6.423913043478261	3.1956521739130435	3956.043956043956	128.0	128.0	-3.4691945873730887	4.017030479553996	0.5478358921809068	492.90813182689334	591.2319089450729	-2.854961832061069	6.8396946564885495	0.6259541984732824	0.15442278860569714	0.815592203898051	0.952023988005997	
1.7104001276293105E12	1.9021739130434783	-6.380434782608695	3.25	3956.043956043956	128.0	128.0	-3.463424857071025	4.013929249516636	0.5505043924456111	492.90531908337107	591.223470714506	-2.9770992366412212	7.114503816793893	1.0381679389312977	0.17391304347826086	0.8065967016491754	0.9370314842578711	
1.7104001276488423E12	1.9130434782608696	-6.413043478260869	3.2717391304347827	3948.7179487179483	128.0	128.0	-3.450731450406486	4.009818316676416	0.5590868662699302	492.9347447079116	591.2091185103797	-3.465648854961832	6.977099236641221	0.8549618320610687	0.17991004497751123	0.815592203898051	0.9460269865067465	
1.710400127668374E12	1.9239130434782608	-6.434782608695652	3.25	3956.043956043956	128.0	128.0	-3.4544096534740514	4.025540831749539	0.5711311782754872	492.9286864910944	591.2039978747366	-4.030534351145038	6.687022900763359	1.0381679389312977	0.1829085457271364	0.8185907046476761	0.9550224887556221	
1.7104001276879058E12	1.9239130434782608	-6.467391304347826	3.260869565217391	3954.5787545787543	128.0	128.0	-3.4461877877936113	4.0160928983799105	0.5699051105862988	492.95501088559763	591.213517929735	-3.114503816793893	6.671755725190839	0.9465648854961831	0.16941529235382308	0.8125937031484257	0.9490254872563718	
1.7104001277074377E12	1.934782608695652	-6.467391304347826	3.25	3954.5787545787543	128.0	128.0	-3.4702764118047256	4.033329967657324	0.5630535558525986	492.9185894630658	591.2031324151912	-2.610687022900763	6.549618320610687	1.1450381679389312	0.1829085457271364	0.8215892053973013	0.9475262368815592	
1.7104001277269695E12	1.9021739130434783	-6.456521739130435	3.260869565217391	3954.5787545787543	128.0	128.0	-3.474964317675152	4.043138509170832	0.5681741914956798	492.94094716798634	591.201617860987	-2.2442748091603053	6.5038167938931295	1.4961832061068703	0.18440779610194902	0.815592203898051	0.9565217391304347	
1.7104001277465012E12	1.9021739130434783	-6.434782608695652	3.25	3931.135531135531	128.0	128.0	-3.4857104403627446	4.041696076595316	0.5559856362325712	492.9090694080674	591.2055124289409	-2.595419847328244	6.824427480916031	1.618320610687023	0.1829085457271364	0.8215892053973013	0.9430284857571214	
1.710400127766033E12	1.9130434782608696	-6.391304347826087	3.2717391304347827	3957.5091575091574	128.0	128.0	-3.4904704678619467	4.035060886747943	0.5445904188859962	492.92392646359525	591.1839480619369	-2.564885496183206	6.885496183206107	1.4961832061068703	0.18590704647676162	0.8140929535232384	0.9505247376311844	
1.7104001277855647E12	1.9130434782608696	-6.391304347826087	3.25	3957.5091575091574	128.0	128.0	-3.487585602710915	4.035854224664477	0.5482686219535616	492.91253124624865	591.1864723189441	-2.6412213740458013	6.33587786259542	1.297709923664122	0.16941529235382308	0.8200899550224887	0.952023988005997	
1.7104001278050964E12	1.934782608695652	-6.423913043478261	3.25	3950.18315018315	128.0	128.0	-3.482464967067834	4.033185724399773	0.5507207573319385	492.9245755582542	591.1770965072033	-3.145038167938931	6.351145038167939	1.2061068702290076	0.17241379310344826	0.8125937031484257	0.9565217391304347	
1.7104001278246282E12	1.9239130434782608	-6.413043478260869	3.2717391304347827	3957.5091575091574	128.0	128.0	-3.4932110897554267	4.0455906445492085	0.5523795547937816	492.92233978776216	591.1739231555371	-3.1755725190839694	6.473282442748092	1.2366412213740459	0.18590704647676162	0.8290854572713643	0.9550224887556221	
1.71040012784416E12	1.9565217391304348	-6.423913043478261	3.282608695652174	3954.5787545787543	128.0	128.0	-3.5092220913436525	4.069679268560323	0.5604571772166702	492.9029390696215	591.1817844130736	-3.16030534351145	6.549618320610687	1.129770992366412	0.17691154422788605	0.8050974512743628	0.9565217391304347	
1.7104001278636917E12	1.9239130434782608	-6.434782608695652	3.25	3954.5787545787543	128.0	128.0	-3.510376037404065	4.065640457348878	0.5552644199448132	492.90358816428045	591.1743558853098	-3.0534351145038165	6.916030534351145	1.0687022900763359	0.1829085457271364	0.8245877061469266	0.9505247376311844	
1.7104001278832234E12	1.9130434782608696	-6.423913043478261	3.260869565217391	3956.043956043956	128.0	128.0	-3.5132609025550967	4.071770795794821	0.5585098932397239	492.9172912737479	591.1783225748924	-2.9618320610687023	7.2824427480916025	0.8396946564885496	0.17091454272863568	0.8185907046476761	0.9550224887556221	
1.7104001279027554E12	1.891304347826087	-6.391304347826087	3.282608695652174	3932.6007326007325	128.0	128.0	-3.5068420775940514	4.076891431437902	0.5700493538438504	492.90185724518983	591.1808468318995	-3.3587786259541983	7.526717557251908	0.8702290076335878	0.17091454272863568	0.8215892053973013	0.9580209895052474	
1.710400127922287E12	1.9021739130434783	-6.413043478260869	3.2717391304347827	3956.043956043956	128.0	128.0	-3.5072026857379304	4.085618148519773	0.5784154627818421	492.8906062711008	591.1726970878478	-3.3587786259541983	7.297709923664121	0.7175572519083969	0.1829085457271364	0.8185907046476761	0.9505247376311844	
1.7104001279418188E12	1.9130434782608696	-6.413043478260869	3.25	3956.043956043956	128.0	128.0	-3.514486970244285	4.152114290251052	0.6376273200067664	492.91137730018824	591.1788274262939	-3.0076335877862594	6.854961832061068	1.2061068702290076	0.1634182908545727	0.8245877061469266	0.9475262368815592	
1.7104001279613506E12	1.9239130434782608	-6.434782608695652	3.2717391304347827	3948.7179487179483	128.0	128.0	-3.4929226032403236	4.170216819073775	0.6772942158334513	492.9348168295404	591.1601479244409	-3.0534351145038165	7.038167938931298	0.6717557251908397	0.17241379310344826	0.8200899550224887	0.9565217391304347	
1.7104001279808823E12	1.9130434782608696	-6.423913043478261	3.293478260869565	3956.043956043956	128.0	128.0	-3.463424857071025	4.189689658843238	0.7262648017722132	492.92306100404994	591.1481036124353	-2.916030534351145	7.49618320610687	0.732824427480916	0.17691154422788605	0.8200899550224887	0.9385307346326837	
1.710400128000414E12	1.891304347826087	-6.434782608695652	3.282608695652174	3956.043956043956	128.0	128.0	-3.5110251320630472	4.1576676556667875	0.6466425236037402	492.9251525312844	591.1645473437962	-2.8702290076335877	7.206106870229007	1.0229007633587786	0.17241379310344826	0.815592203898051	0.952023988005997	
1.7104001280199458E12	1.8695652173913042	-6.423913043478261	3.293478260869565	3954.5787545787543	128.0	128.0	-3.545571392246651	4.1269438418083	0.5813724495616496	492.9046699887121	591.1624558165618	-2.7022900763358777	7.236641221374046	0.916030534351145	0.17991004497751123	0.8200899550224887	0.9415292353823088	
1.7104001280394775E12	1.8695652173913042	-6.434782608695652	3.260869565217391	3956.043956043956	128.0	128.0	-3.5398737835733636	4.104802501774133	0.5649287182007693	493.0485526381198	591.1512769641015	-2.7022900763358777	7.343511450381679	1.0381679389312977	0.1619190404797601	0.8200899550224887	0.9415292353823088	
1.7104001280590093E12	1.891304347826087	-6.391304347826087	3.2391304347826084	3931.135531135531	128.0	128.0	-3.5681454620534736	4.133795396542001	0.5656499344885272	492.90337179939417	591.1501951396698	-2.259541984732824	6.977099236641221	1.099236641221374	0.17241379310344826	0.8200899550224887	0.9640179910044977	
1.7104001280785413E12	1.8804347826086956	-6.445652173913043	3.2282608695652173	3929.6703296703295	128.0	128.0	-3.5816322066345463	4.0733574716278875	0.4917252649933416	492.8933468929943	591.2228937414758	-2.900763358778626	7.221374045801526	0.9618320610687022	0.16941529235382308	0.8275862068965517	0.952023988005997	
1.710400128098073E12	1.9021739130434783	-6.434782608695652	3.293478260869565	3954.5787545787543	128.0	128.0	-3.341106574667284	4.332634727076856	0.9915281524095718	492.9004148126143	591.1722643580753	-2.3664122137404577	5.969465648854961	0.6870229007633587	0.17991004497751123	0.8275862068965517	0.9640179910044977	
1.7104001281176047E12	1.9239130434782608	-6.445652173913043	3.3043478260869565	3948.7179487179483	128.0	128.0	-3.174649855452759	4.840731601802302	1.666081746349543	492.9004148126143	590.7036180142901	-1.9083969465648853	6.580152671755725	0.7938931297709924	0.17841079460269865	0.8245877061469266	0.9430284857571214	
1.7104001281371365E12	1.967391304347826	-6.445652173913043	3.2065217391304346	3957.5091575091574	128.0	128.0	-3.5897819506862105	4.075521120491161	0.48573916980495097	492.90726636734803	590.9586400936413	-1.8625954198473282	6.061068702290076	0.916030534351145	0.17841079460269865	0.8110944527736131	0.9550224887556221	
1.7104001281566682E12	1.8478260869565217	-6.423913043478261	3.402173913043478	3956.043956043956	128.0	128.0	-3.5330222288396635	4.19704606497837	0.6640238361387057	492.92659496385994	591.1815680481873	-1.9389312977099236	4.900763358778626	0.6564885496183206	0.16941529235382308	0.8230884557721139	0.9460269865067465	
1.7104001281762E12	1.9239130434782608	-6.478260869565217	3.2065217391304346	3956.043956043956	128.0	128.0	-3.527180376908824	4.188247226267722	0.6610668493588984	492.9282537613218	591.1956317657986	-4.045801526717557	6.2748091603053435	0.8244274809160305	0.17241379310344826	0.8125937031484257	0.9415292353823088	
1.7104001281957317E12	1.934782608695652	-6.358695652173913	3.3152173913043477	3956.043956043956	128.0	128.0	-3.5364119453921257	4.219115283383761	0.6827033379916356	492.953929061166	591.2259949715132	-0.5343511450381679	5.343511450381679	0.6870229007633587	0.17091454272863568	0.8185907046476761	0.9655172413793103	
1.7104001282152634E12	1.9456521739130435	-6.380434782608695	3.2065217391304346	3932.6007326007325	128.0	128.0	-3.532805863953336	4.245656042773252	0.7128501788199162	492.96907460320887	591.225417998483	-1.8778625954198473	7.633587786259541	1.3893129770992365	0.17691154422788605	0.8230884557721139	0.9460269865067465	
1.7104001282347952E12	1.9130434782608696	-6.467391304347826	3.260869565217391	3957.5091575091574	128.0	128.0	-3.5232858089549315	4.256113678945741	0.7328278699908102	492.94743811457613	591.231836823444	-3.8931297709923665	6.290076335877862	1.2061068702290076	0.1664167916041979	0.8110944527736131	0.9610194902548725	
1.710400128254327E12	1.8804347826086956	-6.510869565217391	3.391304347826087	3956.043956043956	128.0	128.0	-3.518381538198178	4.294049655681808	0.77566811748363	492.94505810082654	591.2605412316968	-4.65648854961832	6.854961832061068	0.8854961832061068	0.17091454272863568	0.8110944527736131	0.9550224887556221	
1.710400128273859E12	1.934782608695652	-6.489130434782608	3.2282608695652173	3948.7179487179483	128.0	128.0	-3.4733055202133087	4.300612723900405	0.8273072036870961	492.9411635328727	591.296818410971	-3.5267175572519083	3.9541984732824424	0.48854961832061067	0.17691154422788605	0.815592203898051	0.952023988005997	
1.7104001282933906E12	1.9239130434782608	-6.413043478260869	3.282608695652174	3957.5091575091574	128.0	128.0	-3.419430663517793	4.337178389689731	0.9177477261719378	492.9428223303345	591.366632147626	-2.0763358778625953	4.67175572519084	0.549618320610687	0.18440779610194902	0.815592203898051	0.952023988005997	
1.7104001283129224E12	1.9239130434782608	-6.391304347826087	3.2717391304347827	3956.043956043956	128.0	128.0	-3.3664212663675865	4.355425161770006	0.9890038954024191	492.95558785862784	591.4009620429233	-2.4427480916030535	5.526717557251908	0.6870229007633587	0.1619190404797601	0.815592203898051	0.9565217391304347	
1.710400128332454E12	1.8695652173913042	-6.380434782608695	3.293478260869565	3950.18315018315	128.0	128.0	-3.3036754493326486	4.411968518730226	1.108293069397577	492.963881845937	591.4181269905719	-2.0763358778625953	5.3893129770992365	0.8244274809160305	0.17091454272863568	0.8185907046476761	0.9400299850074962	
1.7104001283519858E12	1.9130434782608696	-6.380434782608695	3.282608695652174	3956.043956043956	128.0	128.0	-3.306993044256335	4.430215290810501	1.1232222465541657	492.93243681579077	591.3510538758104	-2.6259541984732824	5.374045801526718	0.8549618320610687	0.18590704647676162	0.8215892053973013	0.9610194902548725	
1.7104001283715176E12	1.9130434782608696	-6.434782608695652	3.2717391304347827	3929.6703296703295	128.0	128.0	-3.3967123504534187	4.38412957002277	0.9874172195693517	492.9479429659776	591.2140949027652	-3.3435114503816794	5.145038167938931	0.8549618320610687	0.16941529235382308	0.8125937031484257	0.952023988005997	
1.7104001283910493E12	1.934782608695652	-6.434782608695652	3.282608695652174	3956.043956043956	128.0	128.0	-3.4926341167252204	4.317633428291491	0.8249993115662708	492.9666945894593	591.1532242480785	-3.068702290076336	5.6183206106870225	0.9465648854961831	0.1649175412293853	0.8200899550224887	0.9640179910044977	
1.710400128410581E12	1.9456521739130435	-6.413043478260869	3.293478260869565	3956.043956043956	128.0	128.0	-3.551773852321369	4.278831992010116	0.727058139688747	492.96027576449825	591.1170913120618	-2.213740458015267	5.603053435114504	0.8396946564885496	0.17991004497751123	0.8020989505247376	0.9490254872563718	
1.7104001284301128E12	1.9130434782608696	-6.445652173913043	3.3043478260869565	3947.252747252747	128.0	128.0	-3.5833631257251652	4.25647428708962	0.6731111613644555	492.93171559950304	591.0989887832391	-2.4732824427480917	6.061068702290076	0.564885496183206	0.1649175412293853	0.8125937031484257	0.9490254872563718	
1.7104001284496445E12	1.9456521739130435	-6.445652173913043	3.3043478260869565	3956.043956043956	128.0	128.0	-3.5950468295868436	4.268085869322523	0.6730390397356797	492.9353938025706	591.095166336914	-2.732824427480916	6.305343511450381	0.9618320610687022	0.17241379310344826	0.8050974512743628	0.9385307346326837	
1.7104001284691765E12	1.9239130434782608	-6.489130434782608	3.2282608695652173	3956.043956043956	128.0	128.0	-3.6029080871234047	4.284313235797076	0.6814051486736714	492.94837569575026	591.0843480925976	-1.7251908396946565	6.427480916030534	0.9465648854961831	0.1649175412293853	0.815592203898051	0.9490254872563718	
1.7104001284887083E12	1.9130434782608696	-6.4021739130434785	3.369565217391304	3954.5787545787543	128.0	128.0	-3.6040620331838173	4.27464893754112	0.6705869043573027	492.93669199188855	591.0906947959298	-1.6030534351145038	5.099236641221374	0.5343511450381679	0.17991004497751123	0.815592203898051	0.9460269865067465	
1.71040012850824E12	1.9782608695652173	-6.413043478260869	3.2391304347826084	3956.043956043956	128.0	128.0	-3.5933880321250005	4.284962330456058	0.6915742983310579	492.9049584752272	591.0937960259672	-0.7938931297709924	6.122137404580153	0.6259541984732824	0.18590704647676162	0.8245877061469266	0.9475262368815592	
1.7104001285277717E12	1.8804347826086956	-6.391304347826087	3.369565217391304	3929.6703296703295	128.0	128.0	-3.59064741023152	4.304867899998176	0.7142204897666562	492.89767419072086	591.0808862544163	-1.5877862595419847	7.32824427480916	0.5190839694656488	0.16941529235382308	0.8095952023988006	0.9490254872563718	
1.7104001285473035E12	1.9239130434782608	-6.445652173913043	3.3260869565217392	3957.5091575091574	128.0	128.0	-3.590286802087641	4.30342546742266	0.7131386653350194	492.89320264973674	591.0816795923329	-3.2061068702290076	6.305343511450381	0.42748091603053434	0.1829085457271364	0.8245877061469266	0.9505247376311844	
1.7104001285668352E12	1.934782608695652	-6.456521739130435	3.3804347826086953	3956.043956043956	128.0	128.0	-3.590358923716417	4.330975929615012	0.7406170058985956	492.90813182689334	591.0772801729776	-2.3664122137404577	6.198473282442748	0.24427480916030533	0.17841079460269865	0.8185907046476761	0.9580209895052474	
1.710400128586367E12	1.9130434782608696	-6.456521739130435	3.3260869565217392	3947.252747252747	128.0	128.0	-3.589637707428659	4.326504388630913	0.7368666812022545	492.9809025503281	591.0684813342668	-2.595419847328244	7.1603053435114505	0.2900763358778626	0.1829085457271364	0.8245877061469266	0.9475262368815592	
1.7104001286058987E12	1.9021739130434783	-6.423913043478261	3.3152173913043477	3956.043956043956	128.0	128.0	-3.596633505419911	4.338837187151574	0.742203681731663	492.8930584064792	591.0541291301405	-1.450381679389313	7.022900763358779	0.15267175572519084	0.17391304347826086	0.8110944527736131	0.9475262368815592	
1.7104001286254304E12	1.9021739130434783	-6.413043478260869	3.2717391304347827	3956.043956043956	128.0	128.0	-3.599662613828494	4.336457173401973	0.7367945595734787	492.905679691515	591.0525424543074	-0.5801526717557252	6.809160305343511	0.549618320610687	0.17841079460269865	0.8365817091454273	0.9475262368815592	
1.7104001286449624E12	1.891304347826087	-6.380434782608695	3.3369565217391304	3956.043956043956	128.0	128.0	-3.6174045345073385	4.3544875805959204	0.7370830460885819	492.8965923662892	591.048503643096	-1.5572519083969465	6.076335877862595	0.7480916030534351	0.17691154422788605	0.8125937031484257	0.9460269865067465	
1.7104001286644941E12	1.9130434782608696	-6.380434782608695	3.3369565217391304	3956.043956043956	128.0	128.0	-3.61343784492467	4.361267013700845	0.7478291687761747	492.8986838935237	591.037252669007	-1.3129770992366412	6.045801526717557	0.6717557251908397	0.17241379310344826	0.8275862068965517	0.952023988005997	
1.710400128684026E12	1.9239130434782608	-6.423913043478261	3.293478260869565	3931.135531135531	128.0	128.0	-3.6026196006083016	4.35261241824775	0.7499928176394484	492.92306100404994	591.0261459381754	-2.091603053435114	5.465648854961832	0.7938931297709924	0.1934032983508246	0.8140929535232384	0.9475262368815592	
1.7104001287035576E12	1.9239130434782608	-6.445652173913043	3.358695652173913	3957.5091575091574	128.0	128.0	-3.6088941823117953	4.366892500745356	0.7579983184335612	492.92861436946566	591.0163373966619	-2.763358778625954	5.679389312977099	0.916030534351145	0.17091454272863568	0.8110944527736131	0.9580209895052474	
1.7104001287230894E12	1.934782608695652	-6.434782608695652	3.3043478260869565	3956.043956043956	128.0	128.0	-3.621731832233886	4.3640797572231005	0.7423479249892145	492.94635629014454	591.0061682470046	-2.1526717557251906	5.587786259541985	0.6106870229007634	0.17691154422788605	0.8125937031484257	0.9565217391304347	
1.710400128742621E12	1.9021739130434783	-6.4021739130434785	3.2282608695652173	3947.252747252747	128.0	128.0	-3.621731832233886	4.369849487525164	0.7481176552912778	492.92962407226855	591.0054470307168	-1.0381679389312977	5.358778625954198	0.7938931297709924	0.17841079460269865	0.8065967016491754	0.9580209895052474	
1.7104001287621528E12	1.9021739130434783	-6.4021739130434785	3.3478260869565215	3956.043956043956	128.0	128.0	-3.613798453068549	4.367541595404338	0.7537431423357895	492.93856715423675	590.9892196642422	-1.083969465648855	5.358778625954198	0.732824427480916	0.18590704647676162	0.8185907046476761	0.9505247376311844	
1.7104001287816846E12	1.891304347826087	-6.489130434782608	3.3152173913043477	3954.5787545787543	128.0	128.0	-3.6125002637505848	4.3503766477557	0.7378763840051156	492.9281095180642	590.991239069848	-3.114503816793893	4.106870229007633	0.9770992366412213	0.18440779610194902	0.8275862068965517	0.9565217391304347	
1.7104001288012163E12	1.9130434782608696	-6.489130434782608	3.3369565217391304	3954.5787545787543	128.0	128.0	-3.6166833182195806	4.37727801528907	0.7605946970694897	492.94325506010716	590.9848202448869	-3.0381679389312977	4.045801526717557	1.0534351145038168	0.17841079460269865	0.8290854572713643	0.9370314842578711	
1.710400128820748E12	1.9239130434782608	-6.5	3.4130434782608696	3954.5787545787543	128.0	128.0	-3.6101923716297595	4.427907398689675	0.8177150270599159	492.9269555720038	590.9892196642422	-3.1755725190839694	4.564885496183206	1.7099236641221374	0.17091454272863568	0.8290854572713643	0.9505247376311844	
1.71040012884028E12	1.9130434782608696	-6.521739130434782	3.4130434782608696	3929.6703296703295	128.0	128.0	-3.5784588549684115	4.445072346338313	0.8666134913699021	492.95313572324943	590.9598661613305	-2.045801526717557	6.015267175572519	2.519083969465649	0.1664167916041979	0.8140929535232384	0.9370314842578711	
1.7104001288598118E12	1.9021739130434783	-6.510869565217391	3.25	3954.5787545787543	128.0	128.0	-3.554802960729952	4.465266402395535	0.9104634416655829	492.9714546169585	590.9444321327725	-0.5954198473282443	3.8625954198473282	2.687022900763359	0.17091454272863568	0.8365817091454273	0.9430284857571214	
1.7104001288793435E12	1.9130434782608696	-6.434782608695652	3.260869565217391	3956.043956043956	128.0	128.0	-3.6037014250399384	4.3928562871046415	0.7891548620647029	492.9462841685157	590.9517164172788	-1.5877862595419847	4.183206106870228	2.183206106870229	0.17691154422788605	0.8275862068965517	0.9415292353823088	
1.7104001288988752E12	1.858695652173913	-6.456521739130435	3.3152173913043477	3947.252747252747	128.0	128.0	-3.6156014937879437	4.363935513965549	0.7483340201776052	492.93070589670015	590.9456582004617	-3.5725190839694654	4.305343511450381	2.519083969465649	0.17991004497751123	0.8200899550224887	0.9415292353823088	
1.710400128918407E12	1.8695652173913042	-6.4021739130434785	3.2717391304347827	3956.043956043956	128.0	128.0	-3.62937672488412	4.358670635064916	0.7292939101807965	492.91397367882416	590.944287889515	-4.580152671755725	3.2519083969465647	1.9389312977099236	0.17691154422788605	0.8275862068965517	0.9310344827586207	
1.7104001289379387E12	1.8804347826086956	-6.413043478260869	3.3804347826086953	3954.5787545787543	128.0	128.0	-3.64856107813848	4.354920310368575	0.706359232230095	492.8942844741684	590.9361381454632	-7.1603053435114505	5.572519083969466	2.3053435114503817	0.18440779610194902	0.8230884557721139	0.9385307346326837	
1.7104001289574705E12	1.8478260869565217	-6.5	3.358695652173913	3956.043956043956	128.0	128.0	-3.6088220606830195	4.2639749364823025	0.6551528757992835	492.9157045979148	591.056869752034	-9.297709923664122	2.2900763358778624	2.33587786259542	0.19040479760119938	0.8185907046476761	0.9400299850074962	
1.7104001289770022E12	1.8695652173913042	-6.543478260869565	3.3804347826086953	3954.5787545787543	128.0	128.0	-3.3054063684232675	4.657614786340569	1.3522084179173015	492.91224275973354	590.8449764066906	-9.34351145038168	1.4351145038167938	1.2671755725190839	0.17991004497751123	0.815592203898051	0.9490254872563718	
1.710400128996534E12	1.9565217391304348	-6.467391304347826	3.282608695652174	3932.6007326007325	128.0	128.0	-3.302809989787339	5.11695744001358	1.8141474502262416	492.922411909391	590.5205011988284	-4.65648854961832	-2.0763358778625953	0.5038167938931297	0.1829085457271364	0.8110944527736131	0.9475262368815592	
1.7104001290160657E12	1.9239130434782608	-6.358695652173913	3.260869565217391	3956.043956043956	128.0	128.0	-3.653753835410337	4.18485750971526	0.5311036743049233	492.90358816428045	590.8715171660801	-5.206106870229007	-2.8244274809160306	-0.4427480916030534	0.1829085457271364	0.8110944527736131	0.9475262368815592	
1.7104001290355977E12	1.9565217391304348	-6.173913043478261	3.2282608695652173	3956.043956043956	128.0	128.0	-3.6330549279516853	4.291453277045879	0.6583983490941941	492.91224275973354	590.9811420418193	-7.694656488549618	-0.030534351145038167	-1.3282442748091603	0.17991004497751123	0.8200899550224887	0.952023988005997	
1.7104001290551294E12	1.8804347826086956	-6.141304347826087	3.3478260869565215	3947.252747252747	128.0	128.0	-3.619640304999388	4.281356249017269	0.6617159440178805	492.927532545034	591.0071058281786	-10.534351145038167	1.8473282442748091	-0.47328244274809156	0.17991004497751123	0.815592203898051	0.952023988005997	
1.7104001290746611E12	1.9456521739130435	-6.228260869565217	3.25	3956.043956043956	128.0	128.0	-3.61343784492467	4.264912517656388	0.6514746727317182	492.951981777189	591.0303289926445	-10.977099236641221	2.5343511450381677	1.1450381679389312	0.19040479760119938	0.8065967016491754	0.9400299850074962	
1.7104001290941929E12	2.010869565217391	-6.293478260869565	3.0978260869565215	3954.5787545787543	128.0	128.0	-3.59562380261705	4.312512792648411	0.7168889900313604	492.9461399252582	591.036603574348	-9.358778625954198	6.015267175572519	2.0610687022900764	0.17691154422788605	0.8305847076461769	0.9340329835082458	
1.7104001291137246E12	1.967391304347826	-6.358695652173913	3.152173913043478	3954.5787545787543	128.0	128.0	-3.6022589924644226	4.344679039082413	0.7424200466179904	492.9528472367343	591.0483593998384	-10.412213740458014	7.938931297709924	2.6259541984732824	0.1649175412293853	0.8275862068965517	0.9415292353823088	
1.7104001291332563E12	2.0217391304347827	-6.478260869565217	3.260869565217391	3956.043956043956	128.0	128.0	-3.594614099814189	4.394370841308933	0.7997567414947441	492.9657570082852	591.0655243474871	-11.145038167938932	8.99236641221374	2.4885496183206106	0.18590704647676162	0.8140929535232384	0.9400299850074962	
1.710400129152788E12	1.9130434782608696	-6.5978260869565215	3.3369565217391304	3934.065934065934	128.0	128.0	-3.553865379555867	4.422137668387612	0.8682722888317453	492.95645331817315	591.1094464194115	-9.053435114503817	10.290076335877862	1.4961832061068703	0.17991004497751123	0.815592203898051	0.952023988005997	
1.7104001291723198E12	1.8804347826086956	-6.532608695652174	3.152173913043478	3956.043956043956	128.0	128.0	-3.5136215106989757	4.435985021112564	0.9223635104135884	492.9527029934768	591.1310829080443	-4.65648854961832	9.358778625954198	1.0534351145038168	0.1934032983508246	0.8110944527736131	0.9370314842578711	
1.7104001291918516E12	1.934782608695652	-6.391304347826087	3.043478260869565	3956.043956043956	128.0	128.0	-3.4382544086282745	4.474137362734957	1.0358829541066832	492.96294426476294	591.197434806518	-2.0763358778625953	11.465648854961831	1.8778625954198473	0.17391304347826086	0.8110944527736131	0.9400299850074962	
1.7104001292113833E12	1.891304347826087	-6.3478260869565215	3.184782608695652	3945.7875457875457	128.0	128.0	-3.3998857021195534	4.4892107831490975	1.089325081029544	492.94743811457613	591.1958481306849	-4.809160305343512	12.0	2.5801526717557253	0.18590704647676162	0.8185907046476761	0.9430284857571214	
1.7104001292309153E12	1.8695652173913042	-6.4021739130434785	3.2065217391304346	3954.5787545787543	128.0	128.0	-3.401400256323845	4.510775150153059	1.1093748938292138	492.9582563588925	591.1177404067207	-6.5038167938931295	10.885496183206106	2.3206106870229006	0.18590704647676162	0.8035982008995503	0.9475262368815592	
1.710400129250447E12	1.8369565217391304	-6.445652173913043	3.108695652173913	3954.5787545787543	128.0	128.0	-3.5023705366099525	4.5220982458708585	1.019727709260906	492.9379180595777	591.0335744659394	-3.5572519083969465	11.343511450381678	2.2442748091603053	0.17241379310344826	0.8200899550224887	0.9490254872563718	
1.7104001292699788E12	1.891304347826087	-6.326086956521739	3.043478260869565	3954.5787545787543	128.0	128.0	-3.6347137254135284	4.488417445232564	0.8537037198190356	492.9335186402224	590.9333975235699	-0.183206106870229	11.358778625954198	2.519083969465649	0.17691154422788605	0.8050974512743628	0.9565217391304347	
1.7104001292895105E12	1.9891304347826086	-6.3478260869565215	3.0543478260869565	3954.5787545787543	128.0	128.0	-3.696305596388054	4.462886388645934	0.7665807922578803	492.9187337063234	590.9084434400133	-0.7633587786259541	10.595419847328245	1.8931297709923662	0.19040479760119938	0.8245877061469266	0.9610194902548725	
1.7104001293090422E12	1.8695652173913042	-6.413043478260869	3.0978260869565215	3935.531135531135	128.0	128.0	-3.7118838682036244	4.46021788838123	0.7483340201776052	492.9184452198083	590.8893312083878	-3.4198473282442747	11.511450381679388	1.129770992366412	0.17841079460269865	0.8185907046476761	0.9400299850074962	
1.710400129328574E12	1.826086956521739	-6.5	3.0869565217391304	3954.5787545787543	128.0	128.0	-3.726236072330007	4.4493996440648615	0.7231635717348542	492.9413077761302	590.8948124521747	-4.488549618320611	10.259541984732824	1.114503816793893	0.1829085457271364	0.8035982008995503	0.9475262368815592	
1.7104001293481057E12	1.934782608695652	-6.521739130434782	3.0543478260869565	3956.043956043956	128.0	128.0	-3.7342415731241196	4.461299712812867	0.727058139688747	492.9262343557161	590.8801717615332	-1.4351145038167938	12.198473282442748	0.8549618320610687	0.17241379310344826	0.8095952023988006	0.9490254872563718	
1.7104001293676375E12	1.858695652173913	-6.478260869565217	3.043478260869565	3945.7875457875457	128.0	128.0	-3.738208262706788	4.468583997319222	0.7303757346124333	492.9433271817359	590.873825058201	1.1450381679389312	9.389312977099236	0.48854961832061067	0.17241379310344826	0.8050974512743628	0.952023988005997	
1.7104001293871692E12	1.8043478260869565	-6.467391304347826	2.967391304347826	3956.043956043956	128.0	128.0	-3.7370543166463754	4.476012525083128	0.7389582084367524	492.89168809553246	590.872526868883	1.1908396946564885	9.31297709923664	-0.183206106870229	0.17091454272863568	0.8110944527736131	0.9430284857571214	
1.7104001294067012E12	1.7826086956521738	-6.434782608695652	3.0869565217391304	3956.043956043956	128.0	128.0	-3.7287603293371596	4.478104052317626	0.7493437229804663	492.9312107481016	590.894379722402	0.12213740458015267	10.305343511450381	-0.2595419847328244	0.19040479760119938	0.8110944527736131	0.9370314842578711	
1.710400129426233E12	1.7826086956521738	-6.434782608695652	3.2717391304347827	3954.5787545787543	128.0	128.0	-3.7230627206638722	4.484811363793774	0.7617486431299023	492.95032297972716	590.874762639375	-0.3053435114503817	7.297709923664121	-0.7022900763358778	0.16941529235382308	0.8200899550224887	0.9490254872563718	
1.7104001294457646E12	1.8804347826086956	-6.445652173913043	3.141304347826087	3956.043956043956	128.0	128.0	-3.7390737222520976	4.482647714930501	0.7435739926784031	492.90272270473514	590.8630789355134	1.7404580152671756	6.595419847328244	-0.8244274809160305	0.18440779610194902	0.8095952023988006	0.952023988005997	
1.7104001294652964E12	1.9021739130434783	-6.369565217391304	3.0978260869565215	3938.461538461538	128.0	128.0	-3.7343136947528954	4.478969511862935	0.7446558171100399	492.88829837898	590.8527655425985	4.442748091603053	7.938931297709924	-0.6870229007633587	0.17691154422788605	0.815592203898051	0.9460269865067465	
1.7104001294848281E12	1.9239130434782608	-6.33695652173913	3.1630434782608696	3956.043956043956	128.0	128.0	-3.7370543166463754	4.4761567683406795	0.739102451694304	492.90019844772803	590.8688486658154	2.9923664122137406	9.114503816793892	-0.6717557251908397	0.16941529235382308	0.815592203898051	0.952023988005997	
1.7104001295043599E12	1.9239130434782608	-6.369565217391304	3.1739130434782608	3956.043956043956	128.0	128.0	-3.752127737060516	4.479690728150693	0.7275629910901775	492.86882553921055	590.8733202067996	0.7480916030534351	9.587786259541984	-0.183206106870229	0.17841079460269865	0.8245877061469266	0.9325337331334332	
1.7104001295238916E12	1.9456521739130435	-6.456521739130435	3.1630434782608696	3945.7875457875457	128.0	128.0	-3.737559168047806	4.487551985687254	0.7499928176394484	492.8674552282638	590.8609152866501	0.6870229007633587	8.48854961832061	-0.8091603053435115	0.1829085457271364	0.8110944527736131	0.9475262368815592	
1.7104001295434233E12	1.9891304347826086	-6.456521739130435	3.184782608695652	3948.7179487179483	128.0	128.0	-3.757897467362579	4.476589498113334	0.7186920307507552	492.87120555296013	590.8598334622185	2.183206106870229	8.061068702290076	-1.648854961832061	0.16941529235382308	0.8125937031484257	0.9340329835082458	
1.710400129562955E12	2.0	-6.445652173913043	3.217391304347826	3957.5091575091574	128.0	128.0	-3.756959886188494	4.477022227885989	0.7200623416974953	492.8969529744331	590.8482218799855	2.549618320610687	8.6412213740458	-2.3053435114503817	0.17091454272863568	0.8215892053973013	0.9430284857571214	
1.7104001295824868E12	1.9891304347826086	-6.478260869565217	3.1739130434782608	3954.5787545787543	128.0	128.0	-3.7537144128935833	4.488561688490115	0.7348472755965324	492.9282537613218	590.8526934209697	2.4732824427480917	7.511450381679389	-3.541984732824427	0.17391304347826086	0.8140929535232384	0.9295352323838081	
1.7104001296020188E12	2.010869565217391	-6.532608695652174	3.2717391304347827	3956.043956043956	128.0	128.0	-3.7581138322489065	4.461948807471849	0.7038349752229424	492.85721395697766	590.8591843675595	3.2671755725190836	6.809160305343511	-4.3206106870229	0.19040479760119938	0.8140929535232384	0.9430284857571214	
1.7104001296215505E12	1.9891304347826086	-6.58695652173913	3.3478260869565215	3932.6007326007325	128.0	128.0	-3.7734757391781497	4.471108254326374	0.6976325151482243	492.8869280680333	590.8544964616891	3.2213740458015265	6.091603053435114	-5.3893129770992365	0.19040479760119938	0.8215892053973013	0.9505247376311844	
1.7104001296410823E12	2.043478260869565	-6.608695652173913	3.358695652173913	3956.043956043956	128.0	128.0	-3.7724660363752887	4.508034528259579	0.7355684918842903	492.90690575920416	590.8390624331311	4.641221374045801	4.625954198473282	-5.786259541984733	0.17691154422788605	0.815592203898051	0.952023988005997	
1.710400129660614E12	2.0217391304347827	-6.510869565217391	3.3152173913043477	3954.5787545787543	128.0	128.0	-3.755517453612978	4.524766746135563	0.7692492925225846	492.90474211034086	590.8544964616891	6.259541984732824	4.564885496183206	-5.786259541984733	0.18440779610194902	0.8230884557721139	0.9415292353823088	
1.7104001296801458E12	2.032608695652174	-6.4021739130434785	3.3260869565217392	3947.252747252747	128.0	128.0	-3.716355409187724	4.580588886808025	0.864233477620301	492.8582236597805	590.811728335825	9.358778625954198	1.6335877862595418	-6.305343511450381	0.17091454272863568	0.8140929535232384	0.9430284857571214	
1.7104001296996775E12	2.130434782608696	-6.326086956521739	3.391304347826087	3928.205128205128	128.0	128.0	-3.7362609787298418	4.480411944438451	0.7441509657086094	492.8791389321255	590.8067519434395	9.694656488549619	-1.9541984732824427	-7.374045801526718	0.18440779610194902	0.8095952023988006	0.9280359820089955	
1.7104001297192092E12	2.1956521739130435	-6.304347826086956	3.3804347826086953	3956.043956043956	128.0	128.0	-3.790280078682909	4.414997627138809	0.6247175484558998	492.8657243091732	590.8133150116581	6.061068702290076	-2.396946564885496	-7.908396946564885	0.1634182908545727	0.8185907046476761	0.9400299850074962	
1.710400129738741E12	2.1956521739130435	-6.358695652173913	3.5	3954.5787545787543	128.0	128.0	-3.7829957941765544	4.484162269134792	0.701166474958238	492.87365768833854	590.7782639000731	3.282442748091603	-5.2824427480916025	-9.83206106870229	0.1634182908545727	0.8215892053973013	0.9400299850074962	
1.7104001297582727E12	2.282608695652174	-6.3478260869565215	3.543478260869565	3954.5787545787543	128.0	128.0	-3.7798224425104197	4.419036438350253	0.6392139958398337	492.89320264973674	590.7988185642741	0.5190839694656488	-7.267175572519084	-10.259541984732824	0.1619190404797601	0.8125937031484257	0.9205397301349325	
1.7104001297778044E12	2.0652173913043477	-6.25	3.543478260869565	3941.391941391941	128.0	128.0	-3.7942467682655776	4.588522265973362	0.7942754977077839	492.88231228379163	590.7875675901852	1.9541984732824427	-7.129770992366412	-10.427480916030534	0.18590704647676162	0.8215892053973013	0.9295352323838081	
1.7104001297973364E12	2.152173913043478	-6.195652173913043	3.5760869565217392	3956.043956043956	128.0	128.0	-3.67957337851207	4.611961795325493	0.9323884168134233	492.90185724518983	590.8609874082789	5.083969465648854	-10.015267175572518	-8.51908396946565	0.17091454272863568	0.8290854572713643	0.9325337331334332	
1.7104001298168682E12	2.369565217391304	-6.380434782608695	3.7717391304347827	3956.043956043956	128.0	128.0	-3.269706162179251	5.424267700227225	2.154561538047974	492.88245652704916	590.3217339899223	1.0076335877862594	-5.312977099236641	-6.946564885496183	0.17841079460269865	0.8140929535232384	0.9370314842578711	
1.7104001298364E12	2.2717391304347827	-6.576086956521739	3.8043478260869565	3947.252747252747	128.0	128.0	-3.743401019978645	4.721947279208575	0.9785462592299294	492.89212082530514	590.4886955605383	-4.595419847328244	0.32061068702290074	-2.8244274809160306	0.18590704647676162	0.8110944527736131	0.9400299850074962	
1.7104001298559316E12	2.217391304347826	-6.641304347826087	3.7391304347826084	3956.043956043956	128.0	128.0	-3.7677781305048623	4.709253872544036	0.941475742039173	492.8998378395841	590.7491988836764	-2.687022900763359	1.3435114503816794	0.5038167938931297	0.1664167916041979	0.8245877061469266	0.9295352323838081	
1.7104001298754634E12	2.2391304347826084	-6.423913043478261	3.782608695652174	3957.5091575091574	128.0	128.0	-3.74159797925925	4.855083805928684	1.113485826669434	492.8806534863298	590.7854039413219	5.709923664122138	0.6106870229007634	2.7938931297709924	0.17691154422788605	0.8380809595202399	0.9205397301349325	
1.710400129894995E12	2.3260869565217392	-6.391304347826087	3.891304347826087	3954.5787545787543	128.0	128.0	-3.762441129975454	4.872104510319771	1.109663380344317	492.85627637580353	590.808554984159	8.610687022900763	2.229007633587786	4.396946564885496	0.15742128935532235	0.8275862068965517	0.9385307346326837	
1.7104001299145269E12	2.2391304347826084	-6.5	3.891304347826087	3956.043956043956	128.0	128.0	-3.751695007287861	4.8947507017553695	1.1430556944675083	492.87805710769385	590.8299751079053	2.4122137404580153	7.83206106870229	6.244274809160305	0.18590704647676162	0.8245877061469266	0.9325337331334332	
1.7104001299340586E12	2.2282608695652173	-6.489130434782608	3.869565217391304	3944.322344322344	128.0	128.0	-3.750757426113776	4.923382988379358	1.1726255622655823	492.8823844054204	590.8139641063171	1.4351145038167938	9.541984732824426	7.32824427480916	0.1619190404797601	0.8230884557721139	0.9280359820089955	
1.7104001299535903E12	2.1847826086956523	-6.358695652173913	3.934782608695652	3957.5091575091574	128.0	128.0	-3.7035177592656328	5.049163108964337	1.3456453496987046	492.8904620278433	590.8353121084348	5.297709923664122	14.030534351145038	9.358778625954198	0.17991004497751123	0.8305847076461769	0.9235382308845577	
1.7104001299731223E12	2.2065217391304346	-6.260869565217391	4.065217391304348	3956.043956043956	128.0	128.0	-3.7030129078642022	5.053923136463539	1.3509102285993373	492.8879377708361	590.8762771935794	6.763358778625954	15.81679389312977	10.82442748091603	0.17241379310344826	0.8230884557721139	0.9235382308845577	
1.710400129992654E12	2.1630434782608696	-6.358695652173913	4.076086956521739	3945.7875457875457	128.0	128.0	-3.6857037169580127	5.079814801194049	1.394111084236036	492.89240931182024	590.9361381454632	6.412213740458015	17.19083969465649	11.145038167938932	0.1664167916041979	0.8290854572713643	0.9295352323838081	
1.7104001300121858E12	2.0543478260869565	-6.434782608695652	4.206521739130435	3956.043956043956	128.0	128.0	-3.6256985218165547	5.056086785326814	1.4303882635102587	492.8958711500015	590.9720547165937	5.374045801526718	20.412213740458014	10.0	0.1664167916041979	0.8245877061469266	0.9220389805097451	
1.7104001300317175E12	1.967391304347826	-6.25	4.434782608695652	3957.5091575091574	128.0	128.0	-3.5726891246663484	5.10000885725127	1.5273197325849215	492.9074106106056	590.973857757313	11.038167938931297	19.908396946564885	10.061068702290076	0.17391304347826086	0.8185907046476761	0.9295352323838081	
1.7104001300512493E12	1.8043478260869565	-5.8478260869565215	4.467391304347826	3956.043956043956	128.0	128.0	-3.527180376908824	5.168524404588271	1.6413440276794469	492.87473951277013	590.8659638006644	19.114503816793892	18.47328244274809	11.007633587786259	0.17241379310344826	0.815592203898051	0.9340329835082458	
1.710400130070781E12	1.641304347826087	-5.75	4.25	3956.043956043956	128.0	128.0	-3.5791079496273936	5.153523105802907	1.5744151561755129	492.892481433449	590.8090598355603	16.702290076335878	20.65648854961832	12.183206106870228	0.15742128935532235	0.8200899550224887	0.9235382308845577	
1.7104001300903127E12	1.9130434782608696	-5.83695652173913	4.413043478260869	3931.135531135531	128.0	128.0	-3.748665898879278	4.997524022760871	1.2488581238815932	492.83716414417796	590.703978622434	8.625954198473282	19.954198473282442	13.221374045801527	0.17991004497751123	0.815592203898051	0.9130434782608695	
1.7104001301098445E12	1.9239130434782608	-6.58695652173913	4.869565217391305	3954.5787545787543	128.0	128.0	-3.8466791923855777	5.008774996849895	1.162095804464317	492.8350726169435	590.607479883132	-0.3969465648854962	18.442748091603054	11.450381679389313	0.17391304347826086	0.8140929535232384	0.9220389805097451	
1.7104001301293762E12	2.010869565217391	-7.130434782608695	4.663043478260869	3954.5787545787543	128.0	128.0	-3.862690193973803	4.987499116361036	1.124808922387233	492.8507951320166	590.6201011681678	-7.312977099236641	15.66412213740458	6.427480916030534	0.1649175412293853	0.8230884557721139	0.9310344827586207	
1.710400130148908E12	2.043478260869565	-6.934782608695652	3.7717391304347827	3945.7875457875457	128.0	128.0	-3.896731602755976	5.033729080406318	1.1369974776503418	492.84343872588147	590.5606729460566	-1.0381679389312977	11.84732824427481	3.465648854961832	0.17691154422788605	0.815592203898051	0.9385307346326837	
1.71040013016844E12	1.684782608695652	-6.489130434782608	3.3043478260869565	3956.043956043956	128.0	128.0	-3.902357089800488	5.011876226887253	1.1095191370867654	492.8719988908767	590.5636299328363	15.358778625954198	13.96946564885496	0.2900763358778626	0.17391304347826086	0.800599700149925	0.9250374812593702	
1.7104001301879717E12	1.8478260869565217	-6.315217391304348	3.934782608695652	3956.043956043956	128.0	128.0	-3.8917552103704467	5.0415182163141035	1.1497630059436568	492.86550794428683	590.5345649164396	14.961832061068701	14.030534351145038	-0.549618320610687	0.17091454272863568	0.8185907046476761	0.9370314842578711	
1.7104001302075034E12	2.010869565217391	-6.315217391304348	4.130434782608695	3956.043956043956	128.0	128.0	-3.867450221473005	5.068996556877679	1.2015463354046745	492.90214573170493	590.5173278471623	1.618320610687023	13.694656488549617	-2.0	0.17391304347826086	0.8065967016491754	0.9400299850074962	
1.7104001302270352E12	2.0760869565217392	-6.358695652173913	3.717391304347826	3956.043956043956	128.0	128.0	-3.8766817899563066	5.1080143580453825	1.231332568089076	492.8717104043616	590.5093223463682	-0.4580152671755725	15.770992366412212	-3.633587786259542	0.17391304347826086	0.8185907046476761	0.9325337331334332	
1.710400130246567E12	1.9130434782608696	-5.923913043478261	3.5978260869565215	3929.6703296703295	128.0	128.0	-3.8697581135938304	5.097989451645548	1.2282313380517171	492.8567091055762	590.5036968593237	8.229007633587786	16.442748091603054	-5.0534351145038165	0.18440779610194902	0.8200899550224887	0.9460269865067465	
1.7104001302660986E12	1.9239130434782608	-5.83695652173913	3.8478260869565215	3956.043956043956	128.0	128.0	-3.8490592061351787	5.1248186975501415	1.2757594914149633	492.85476182159925	590.4933834664087	12.870229007633588	14.80916030534351	-4.229007633587786	0.17241379310344826	0.8275862068965517	0.9310344827586207	
1.7104001302856304E12	1.8478260869565217	-6.043478260869565	4.206521739130435	3956.043956043956	128.0	128.0	-3.8386015699626888	5.099576127478615	1.2609745575159261	492.8567091055762	590.4834306816376	5.862595419847328	18.946564885496183	-1.0534351145038168	0.17391304347826086	0.8215892053973013	0.9295352323838081	
1.710400130305162E12	1.8152173913043477	-6.206521739130435	4.315217391304348	3944.322344322344	128.0	128.0	-3.8577138015882735	5.087820301988161	1.2301065003998877	492.8636327819387	590.4949701422418	-1.3893129770992365	24.519083969465647	1.3282442748091603	0.15892053973013492	0.8395802098950524	0.9400299850074962	
1.7104001303246938E12	1.9021739130434783	-6.130434782608695	4.184782608695652	3956.043956043956	128.0	128.0	-3.8362936778418635	5.09178699157083	1.255493313728966	492.87336920182344	590.4610729767171	6.641221374045801	22.671755725190838	3.8625954198473282	0.1664167916041979	0.8290854572713643	0.9190404797601199	
1.7104001303442256E12	1.934782608695652	-5.630434782608695	4.010869565217392	3957.5091575091574	128.0	128.0	-3.8450203949237345	5.096619140698808	1.2515987457750732	492.8745952695126	590.4715306128896	22.35114503816794	15.938931297709923	5.206106870229007	0.1664167916041979	0.8320839580209894	0.9190404797601199	
1.7104001303637576E12	1.7282608695652173	-5.826086956521739	4.228260869565217	3956.043956043956	128.0	128.0	-3.8380245969324824	5.099215519334736	1.2611909224022535	492.85238180784967	590.476867613419	22.564885496183205	12.977099236641221	3.679389312977099	0.17391304347826086	0.8110944527736131	0.9370314842578711	
1.7104001303832893E12	1.5434782608695652	-5.956521739130435	4.619565217391305	3956.043956043956	128.0	128.0	-3.8564156122703093	5.108158601302934	1.251742989032625	492.85245392947843	590.4531395975519	2.595419847328244	14.366412213740457	-1.8778625954198473	0.17091454272863568	0.8290854572713643	0.9370314842578711	
1.710400130402821E12	1.5434782608695652	-6.108695652173913	4.695652173913043	3931.135531135531	128.0	128.0	-3.825475433525495	5.099359762592288	1.2738843290667927	492.8875050410635	590.4590535711114	-6.2748091603053435	7.145038167938931	-2.732824427480916	0.1619190404797601	0.8305847076461769	0.9280359820089955	
1.7104001304223528E12	1.6304347826086956	-6.293478260869565	4.58695652173913	3956.043956043956	128.0	128.0	-3.851655584771107	5.104768884750472	1.253113299979365	492.88599048685916	590.4502547324008	-1.5725190839694656	-5.32824427480916	-4.061068702290076	0.17841079460269865	0.8215892053973013	0.9220389805097451	
1.7104001304418845E12	1.75	-6.358695652173913	4.467391304347826	3956.043956043956	128.0	128.0	-3.8348512452663477	5.167442580156634	1.3325913348902865	492.85447333508415	590.4533559624382	-1.3129770992366412	-10.80916030534351	-5.648854961832061	0.1649175412293853	0.8305847076461769	0.9340329835082458	
1.7104001304614163E12	1.9891304347826086	-6.3478260869565215	4.532608695652174	3944.322344322344	128.0	128.0	-3.8356445831828814	5.198454880530225	1.3628102973473428	492.8570697137201	590.4505432189159	0.15267175572519084	-8.396946564885496	-5.236641221374046	0.18590704647676162	0.8290854572713643	0.9325337331334332	
1.710400130480948E12	2.130434782608696	-6.478260869565217	4.684782608695652	3956.043956043956	128.0	128.0	-3.811483837542992	5.225572612949922	1.41408877540693	492.91101669204437	590.4211897160042	6.244274809160305	-2.6412213740458013	-2.7022900763358777	0.17241379310344826	0.8305847076461769	0.9205397301349325	
1.7104001305004797E12	2.0760869565217392	-6.380434782608695	4.5978260869565215	3956.043956043956	128.0	128.0	-3.8370148941296214	5.220019247534186	1.3830043534045642	492.8779849860651	590.4187375806258	8.412213740458014	-4.8396946564885495	-1.4045801526717556	0.17241379310344826	0.8230884557721139	0.9310344827586207	
1.7104001305200115E12	2.0543478260869565	-6.206521739130435	4.75	3956.043956043956	128.0	128.0	-3.8739411680628266	5.172707459057268	1.2987662909944406	492.89414023091086	590.4266709597911	9.450381679389313	-1.1603053435114503	-1.5572519083969465	0.17391304347826086	0.8245877061469266	0.9145427286356821	
1.7104001305395435E12	2.152173913043478	-6.010869565217392	4.6521739130434785	3954.5787545787543	128.0	128.0	-3.8870673045000204	5.170543810193993	1.283476505693973	492.91231488136236	590.4240024595264	7.221374045801526	1.297709923664122	-0.9007633587786259	0.1619190404797601	0.8380809595202399	0.9055472263868065	
1.7104001305590752E12	2.1956521739130435	-5.923913043478261	4.58695652173913	3950.18315018315	128.0	128.0	-3.87559996552467	5.18345358174486	1.3078536162201901	492.9058239347725	590.410299350059	6.061068702290076	6.427480916030534	0.6717557251908397	0.18440779610194902	0.8380809595202399	0.9175412293853074	
1.710400130578607E12	2.043478260869565	-5.978260869565217	4.58695652173913	3957.5091575091574	128.0	128.0	-3.8809369660540782	5.136863009555699	1.2559260435016208	492.88260077030674	590.5098993193984	3.541984732824427	8.427480916030534	1.1603053435114503	0.17091454272863568	0.8290854572713643	0.9220389805097451	
1.7104001305981387E12	1.9782608695652173	-6.0978260869565215	4.58695652173913	3954.5787545787543	128.0	128.0	-3.609038425569347	5.439341120641366	1.8303026950720187	492.8825286486779	590.4187375806258	0.24427480916030533	10.122137404580153	1.297709923664122	0.1829085457271364	0.8320839580209894	0.9145427286356821	
1.7104001306176704E12	1.9130434782608696	-6.173913043478261	4.619565217391305	3942.8571428571427	128.0	128.0	-3.5784588549684115	5.767350288313661	2.1888914333452503	492.8957269067439	590.008509756149	0.42748091603053434	10.870229007633588	2.091603053435114	0.17091454272863568	0.8395802098950524	0.9145427286356821	
1.7104001306372021E12	1.9130434782608696	-6.173913043478261	4.576086956521739	3956.043956043956	128.0	128.0	-3.9030061844594703	5.171192904852976	1.2681867203935053	492.8849807840563	590.2592045377737	2.030534351145038	7.816793893129771	2.732824427480916	0.17241379310344826	0.8380809595202399	0.9175412293853074	
1.710400130656734E12	1.9239130434782608	-6.173913043478261	4.630434782608695	3956.043956043956	128.0	128.0	-3.8207875276550687	5.2708649958211184	1.4500774681660495	492.88829837898	590.434748582214	-0.2595419847328244	8.122137404580153	2.4427480916030535	0.17241379310344826	0.8380809595202399	0.9100449775112444	
1.7104001306762656E12	1.8478260869565217	-6.260869565217391	4.739130434782608	3956.043956043956	128.0	128.0	-3.824177244207531	5.310676134905355	1.486498890697824	492.88288925682184	590.4638135986106	-3.847328244274809	10.244274809160306	2.900763358778626	0.1634182908545727	0.8140929535232384	0.9115442278860569	
1.7104001306957974E12	1.9891304347826086	-6.33695652173913	4.6521739130434785	3945.7875457875457	128.0	128.0	-3.8409094620835145	5.34349147599834	1.5025820139148254	492.8891638385253	590.4567456789906	-1.7251908396946565	9.083969465648854	3.5725190839694654	0.1634182908545727	0.8365817091454273	0.9220389805097451	
1.710400130715329E12	2.0	-6.326086956521739	4.673913043478261	3929.6703296703295	128.0	128.0	-3.8102577698538034	5.359502477586565	1.549244707732762	492.907915462007	590.477516708078	1.099236641221374	9.66412213740458	3.83206106870229	0.17991004497751123	0.8305847076461769	0.9175412293853074	
1.710400130734861E12	1.9456521739130435	-6.358695652173913	4.75	3928.205128205128	128.0	128.0	-3.7860249025851376	5.360295815503099	1.5742709129179613	492.90726636734803	590.4821324923197	-0.42748091603053434	9.84732824427481	4.015267175572519	0.1649175412293853	0.8305847076461769	0.9100449775112444	
1.7104001307543928E12	1.934782608695652	-6.3478260869565215	4.75	3954.5787545787543	128.0	128.0	-3.763090224634436	5.396140265004667	1.6330500403702308	492.8751722425428	590.5223763611766	-1.8778625954198473	9.145038167938932	2.9618320610687023	0.17691154422788605	0.8350824587706147	0.9280359820089955	
1.7104001307739246E12	1.9565217391304348	-6.25	4.793478260869565	3942.8571428571427	128.0	128.0	-3.7321500458896217	5.403208184624694	1.6710581387350725	492.8933468929943	590.5474746879905	1.83206106870229	7.66412213740458	2.687022900763359	0.17091454272863568	0.8290854572713643	0.9295352323838081	
1.7104001307934563E12	1.9565217391304348	-6.130434782608695	4.771739130434782	3956.043956043956	128.0	128.0	-3.696594082903157	5.44475024279955	1.7481561598963928	492.887649284321	590.5723566499182	2.6564885496183206	8.183206106870228	2.015267175572519	0.1619190404797601	0.8455772113943029	0.9055472263868065	
1.710400130812988E12	1.9565217391304348	-6.065217391304348	4.684782608695652	3956.043956043956	128.0	128.0	-3.618269994052648	5.474536475483951	1.8562664814313032	492.872864350422	590.6208945060843	1.5572519083969465	8.732824427480915	1.2519083969465647	0.17391304347826086	0.8320839580209894	0.9190404797601199	
