"sep=	"
Shimmer_6D72_TimestampSync_Unix_CAL	Shimmer_6D72_Accel_LN_X_CAL	Shimmer_6D72_Accel_LN_Y_CAL	Shimmer_6D72_Accel_LN_Z_CAL	Shimmer_6D72_Battery_CAL	Shimmer_6D72_ECG_EMG_Status1_CAL	Shimmer_6D72_ECG_EMG_Status2_CAL	Shimmer_6D72_ECG_LA-RA_24BIT_CAL	Shimmer_6D72_ECG_LL-LA_24BIT_CAL	Shimmer_6D72_ECG_LL-RA_24BIT_CAL	Shimmer_6D72_ECG_RESP_24BIT_CAL	Shimmer_6D72_ECG_Vx-RL_24BIT_CAL	Shimmer_6D72_Gyro_X_CAL	Shimmer_6D72_Gyro_Y_CAL	Shimmer_6D72_Gyro_Z_CAL	Shimmer_6D72_Mag_X_CAL	Shimmer_6D72_Mag_Y_CAL	Shimmer_6D72_Mag_Z_CAL	
ms	m/(s^2)	m/(s^2)	m/(s^2)	mV	no_units	no_units	mV	mV	mV	mV	mV	deg/s	deg/s	deg/s	local_flux	local_flux	local_flux	
1.7104002308546653E12	1.9021739130434783	-6.380434782608695	3.8152173913043477	3947.252747252747	128.0	128.0	-6.235347537439768	14.07886315332212	7.843515615882351	492.6151016491773	584.2857306344189	-4.977099236641221	8.580152671755725	0.3511450381679389	0.17841079460269865	0.8110944527736131	0.9295352323838081	
1.7104002308741973E12	1.858695652173913	-6.369565217391304	3.793478260869565	3954.5787545787543	128.0	128.0	-6.1635865168078565	14.11622215702798	7.952635640220123	492.589137862818	584.3437885455834	-4.33587786259542	8.931297709923664	0.7480916030534351	0.17241379310344826	0.815592203898051	0.9235382308845577	
1.7104002308937292E12	1.858695652173913	-6.3478260869565215	3.760869565217391	3929.6703296703295	128.0	128.0	-6.131131783858751	14.129997388124156	7.998865604265405	492.6049324995199	584.3232338813823	-3.5572519083969465	8.427480916030534	0.47328244274809156	0.17691154422788605	0.8305847076461769	0.9385307346326837	
1.7104002309132612E12	1.8695652173913042	-6.33695652173913	3.793478260869565	3954.5787545787543	128.0	128.0	-6.1749096125256555	14.140815632440525	7.965906019914868	492.59151787656765	584.2002665043195	-3.6946564885496183	8.229007633587786	0.48854961832061067	0.18440779610194902	0.8275862068965517	0.9460269865067465	
1.7104002309327932E12	1.858695652173913	-6.3478260869565215	3.8260869565217392	3954.5787545787543	128.0	128.0	-6.286626015499356	14.074896463739451	7.7882704482400955	492.59389789031724	584.1209327126662	-3.9083969465648853	8.900763358778626	0.16793893129770993	0.1619190404797601	0.8230884557721139	0.9460269865067465	
1.7104002309523252E12	1.8369565217391304	-6.358695652173913	3.793478260869565	3947.252747252747	128.0	128.0	-6.370647713023152	14.036888365374608	7.6662406523514575	492.5715401853967	584.053426868132	-3.5572519083969465	8.65648854961832	0.10687022900763359	0.17091454272863568	0.8290854572713643	0.9400299850074962	
1.7104002309718572E12	1.8478260869565217	-6.369565217391304	3.782608695652174	3956.043956043956	128.0	128.0	-6.417743136613743	13.967363115234747	7.549619978621004	492.545071547636	584.0339540283626	-3.3435114503816794	8.091603053435113	0.564885496183206	0.1634182908545727	0.8365817091454273	0.9430284857571214	
1.7104002309913892E12	1.858695652173913	-6.3478260869565215	3.7717391304347827	3954.5787545787543	128.0	128.0	-6.423080137143152	13.95755457372124	7.534474436578088	492.6342860024317	584.0285449062044	-3.0076335877862594	7.862595419847328	0.48854961832061067	0.1619190404797601	0.8230884557721139	0.9310344827586207	
1.7104002310109211E12	1.858695652173913	-6.358695652173913	3.760869565217391	3953.113553113553	128.0	128.0	-6.43974023339036	13.972772237392931	7.533032004002572	492.5608661843379	584.0271745952576	-3.16030534351145	7.480916030534351	0.6870229007633587	0.17241379310344826	0.8230884557721139	0.9460269865067465	
1.7104002310304531E12	1.8478260869565217	-6.369565217391304	3.782608695652174	3954.5787545787543	128.0	128.0	-6.450125747934074	13.961088533531253	7.51096278559718	492.57471353706285	584.0412383128689	-2.7938931297709924	6.152671755725191	0.38167938931297707	0.1664167916041979	0.8245877061469266	0.9400299850074962	
1.710400231049985E12	1.8804347826086956	-6.369565217391304	3.793478260869565	3929.6703296703295	128.0	128.0	-6.443490558086701	13.95993458747084	7.51644402938414	492.5790408347894	584.0449886375652	-3.0839694656488548	7.145038167938931	0.5954198473282443	0.17841079460269865	0.8215892053973013	0.9325337331334332	
1.7104002310695168E12	1.8478260869565217	-6.304347826086956	3.8152173913043477	3954.5787545787543	128.0	128.0	-6.440822057821997	13.971474048074967	7.530651990252971	492.5716844286543	584.0476571378299	-2.519083969465649	7.022900763358779	0.33587786259541985	0.191904047976012	0.8455772113943029	0.9415292353823088	
1.7104002310890488E12	1.826086956521739	-6.326086956521739	3.793478260869565	3954.5787545787543	128.0	128.0	-6.453587586115312	13.969815250613124	7.516227664497813	492.58344025414476	584.0495323001782	-4.473282442748092	6.534351145038167	0.3511450381679389	0.15892053973013492	0.8245877061469266	0.9370314842578711	
1.7104002311085808E12	1.8695652173913042	-6.293478260869565	3.8369565217391304	3947.252747252747	128.0	128.0	-6.445509963692423	13.966209169174334	7.520699205481912	492.57630021289594	584.0348916095367	-3.5725190839694654	5.2824427480916025	0.33587786259541985	0.1664167916041979	0.8245877061469266	0.9250374812593702	
1.7104002311281128E12	1.8804347826086956	-6.358695652173913	3.8478260869565215	3956.043956043956	128.0	128.0	-6.444932990662217	13.976450440460496	7.53151744979828	492.58199782156925	584.0265976222274	-5.145038167938931	5.3893129770992365	0.6412213740458015	0.1649175412293853	0.8275862068965517	0.9385307346326837	
1.7104002311476448E12	1.891304347826087	-6.369565217391304	3.8369565217391304	3954.5787545787543	128.0	128.0	-6.433249286800538	13.947890275465284	7.514640988664746	492.5986579178164	584.0276073250303	-3.9083969465648853	6.106870229007633	0.3053435114503817	0.1874062968515742	0.8095952023988006	0.952023988005997	
1.7104002311671768E12	1.8695652173913042	-6.391304347826087	3.8369565217391304	3954.5787545787543	128.0	128.0	-6.440894179450773	13.939884774671171	7.498990595220399	492.5905802953935	584.0279679331742	-3.2061068702290076	6.671755725190839	0.6870229007633587	0.1649175412293853	0.8230884557721139	0.9340329835082458	
1.7104002311867087E12	1.858695652173913	-6.369565217391304	3.8043478260869565	3954.5787545787543	128.0	128.0	-6.454957897062052	13.948827856639369	7.493869959577317	492.5868299706972	584.0284727845756	-2.9770992366412212	6.793893129770992	0.7022900763358778	0.17241379310344826	0.8230884557721139	0.9385307346326837	
1.7104002312062407E12	1.9021739130434783	-6.358695652173913	3.793478260869565	3931.135531135531	128.0	128.0	-6.456760937781446	13.968084331522505	7.511323393741059	492.614236189632	584.0287612710907	-2.7938931297709924	6.702290076335878	1.2366412213740459	0.17691154422788605	0.8275862068965517	0.9415292353823088	
1.7104002312257727E12	1.9130434782608696	-6.3478260869565215	3.782608695652174	3956.043956043956	128.0	128.0	-6.434042624717072	14.010852457386548	7.576809832669477	492.60882706747384	584.0234242705612	-3.7404580152671754	5.9541984732824424	0.9770992366412213	0.17691154422788605	0.8275862068965517	0.9460269865067465	
1.7104002312453047E12	1.9021739130434783	-6.3478260869565215	3.8152173913043477	3954.5787545787543	128.0	128.0	-6.399424242904693	14.02405071545252	7.624626472547827	492.63493509709065	584.0059708363975	-3.7709923664122136	5.587786259541985	0.7633587786259541	0.17091454272863568	0.8245877061469266	0.9430284857571214	
1.7104002312648367E12	1.891304347826087	-6.358695652173913	3.793478260869565	3945.7875457875457	128.0	128.0	-6.391346620481804	14.003568172880193	7.61222155239839	492.6216647173959	584.0200345540088	-4.122137404580153	5.587786259541985	0.6564885496183206	0.18590704647676162	0.8290854572713643	0.9475262368815592	
1.7104002312843687E12	1.8804347826086956	-6.369565217391304	3.8152173913043477	3956.043956043956	128.0	128.0	-6.448250585585903	13.938225977209328	7.489975391623425	492.6218089606535	584.0226309326448	-4.259541984732825	6.5038167938931295	0.6412213740458015	0.17091454272863568	0.8215892053973013	0.9430284857571214	
1.7104002313039006E12	1.8695652173913042	-6.4021739130434785	3.7717391304347827	3954.5787545787543	128.0	128.0	-6.444932990662217	13.908583987782478	7.463650997120261	492.6151737708061	584.0070526608292	-3.5572519083969465	6.259541984732824	0.6564885496183206	0.1619190404797601	0.8230884557721139	0.9385307346326837	
1.7104002313234326E12	1.8695652173913042	-6.358695652173913	3.793478260869565	3954.5787545787543	128.0	128.0	-6.453154856342657	13.902093041192657	7.44893818485	492.6209435011082	584.0180151484032	-3.0381679389312977	6.488549618320611	0.564885496183206	0.17391304347826086	0.8290854572713643	0.9430284857571214	
1.7104002313429646E12	1.8804347826086956	-6.3478260869565215	3.8152173913043477	3954.5787545787543	128.0	128.0	-6.457121545925325	13.89228449967915	7.435162953753824	492.5883445249015	584.0319346227568	-3.9389312977099236	5.984732824427481	0.6870229007633587	0.15892053973013492	0.8365817091454273	0.9325337331334332	
1.7104002313624966E12	1.8695652173913042	-6.369565217391304	3.8043478260869565	3931.135531135531	128.0	128.0	-6.248113065733083	14.04164839287381	7.793535327140728	492.57529051009305	584.0992962240334	-3.7862595419847325	5.969465648854961	0.8396946564885496	0.17841079460269865	0.8140929535232384	0.9400299850074962	
1.7104002313820286E12	1.858695652173913	-6.423913043478261	3.8369565217391304	3954.5787545787543	128.0	128.0	-5.869402393031406	14.619414760996671	8.750012367965265	492.56194800876955	583.5821120240822	-3.4045801526717554	6.671755725190839	0.916030534351145	0.17841079460269865	0.8245877061469266	0.9370314842578711	
1.7104002314015605E12	1.9239130434782608	-6.4021739130434785	3.793478260869565	3956.043956043956	128.0	128.0	-6.24969974156615	13.996572374888942	7.746872633322792	492.59959549899054	583.7318365254208	-2.2900763358778624	5.557251908396946	1.2519083969465647	0.18590704647676162	0.8245877061469266	0.9475262368815592	
1.7104002314210923E12	1.8695652173913042	-6.304347826086956	3.8478260869565215	3945.7875457875457	128.0	128.0	-6.386730836240154	13.902020919563881	7.515290083323728	492.6198616766765	584.0435462049898	-1.9389312977099236	6.137404580152672	0.7480916030534351	0.18440779610194902	0.8275862068965517	0.9385307346326837	
1.7104002314406243E12	1.858695652173913	-6.391304347826087	3.75	3954.5787545787543	128.0	128.0	-6.397332715670195	13.91334401528168	7.516011299611486	492.6019755127401	584.0749912351359	-4.259541984732825	6.076335877862595	0.7633587786259541	0.18440779610194902	0.8305847076461769	0.9340329835082458	
1.7104002314601562E12	1.8695652173913042	-6.304347826086956	3.793478260869565	3954.5787545787543	128.0	128.0	-6.383413241316467	13.91110824478963	7.527695003473164	492.61921258201755	584.1016762377831	-0.7022900763358778	5.541984732824427	0.6564885496183206	0.1634182908545727	0.8035982008995503	0.9505247376311844	
1.7104002314796882E12	1.8804347826086956	-6.315217391304348	3.75	3954.5787545787543	128.0	128.0	-6.364084644804555	13.919402232098847	7.555317587294291	492.6205107713355	584.1118453874404	-3.9236641221374042	7.221374045801526	1.114503816793893	0.17091454272863568	0.8185907046476761	0.9475262368815592	
1.7104002314992202E12	1.9021739130434783	-6.369565217391304	3.7391304347826084	3956.043956043956	128.0	128.0	-6.352184576056549	13.942336910049548	7.590152333992998	492.6253429204635	584.1481225667146	-3.480916030534351	6.137404580152672	0.9312977099236641	0.17391304347826086	0.8290854572713643	0.9400299850074962	
1.7104002315187522E12	1.8804347826086956	-6.413043478260869	3.869565217391304	3931.135531135531	128.0	128.0	-6.319874086364996	13.92740773289296	7.607533646527964	492.6443830304603	584.1550462430771	-6.290076335877862	7.7251908396946565	0.549618320610687	0.16941529235382308	0.8230884557721139	0.9490254872563718	
1.7104002315382842E12	1.9021739130434783	-6.478260869565217	3.869565217391304	3956.043956043956	128.0	128.0	-6.293477570233056	13.9698873722419	7.676409802008844	492.6161113519802	584.2160611410214	-4.748091603053435	5.694656488549618	0.6259541984732824	0.17391304347826086	0.8245877061469266	0.9370314842578711	
1.7104002315578162E12	1.891304347826087	-6.413043478260869	3.782608695652174	3956.043956043956	128.0	128.0	-6.2523682418308555	13.984239576368282	7.731871334537427	492.61308224357157	584.2550068205603	-2.854961832061069	5.083969465648854	0.47328244274809156	0.16941529235382308	0.8350824587706147	0.9310344827586207	
1.7104002315773481E12	1.8804347826086956	-6.33695652173913	3.7282608695652173	3945.7875457875457	128.0	128.0	-6.213711048807031	14.020516755642506	7.806805706835474	492.5992348908466	584.2981355545683	-2.717557251908397	6.198473282442748	0.38167938931297707	0.17091454272863568	0.8185907046476761	0.9475262368815592	
1.7104002315968801E12	1.891304347826087	-6.304347826086956	3.7065217391304346	3956.043956043956	128.0	128.0	-6.112380160377045	14.04835570434996	7.935975543972916	492.6204386497067	584.3550395196723	-3.2519083969465647	5.877862595419847	0.41221374045801523	0.17241379310344826	0.8230884557721139	0.9385307346326837	
1.710400231616412E12	1.858695652173913	-6.293478260869565	3.7717391304347827	3956.043956043956	128.0	128.0	-6.091320644774514	14.082901964533564	7.9915813197590495	492.61906833876	584.2981355545683	-3.9541984732824424	5.679389312977099	0.4427480916030534	0.17691154422788605	0.8305847076461769	0.9310344827586207	
1.710400231635944E12	1.8804347826086956	-6.326086956521739	3.793478260869565	3954.5787545787543	128.0	128.0	-6.181328437486701	14.085065613396837	7.903737175910137	492.6165440817528	584.175673028907	-3.7862595419847325	6.244274809160305	0.9770992366412213	0.1634182908545727	0.8290854572713643	0.9550224887556221	
1.710400231655476E12	1.9021739130434783	-6.3478260869565215	3.782608695652174	3954.5787545787543	128.0	128.0	-6.2746538251225745	14.003640294508969	7.728986469386395	492.6046440130048	584.0953295344508	-3.1755725190839694	6.671755725190839	0.7480916030534351	0.17841079460269865	0.8215892053973013	0.9400299850074962	
1.710400231675008E12	1.891304347826087	-6.33695652173913	3.7717391304347827	3931.135531135531	128.0	128.0	-6.387379930899136	13.946664207776095	7.55928427687696	492.6109907163371	584.0452050024516	-2.2442748091603053	6.259541984732824	0.7175572519083969	0.1829085457271364	0.8290854572713643	0.9400299850074962	
1.71040023169454E12	1.8695652173913042	-6.358695652173913	3.8043478260869565	3954.5787545787543	128.0	128.0	-6.407573986956357	13.935485355315848	7.527911368359491	492.6288047586447	584.0170054456003	-3.465648854961832	6.549618320610687	0.7175572519083969	0.16941529235382308	0.8380809595202399	0.9415292353823088	
1.710400231714072E12	1.891304347826087	-6.380434782608695	3.793478260869565	3954.5787545787543	128.0	128.0	-6.396467256124885	13.91832040766721	7.521853151542325	492.6371708675827	584.0027253631026	-4.137404580152672	6.3969465648854955	0.6259541984732824	0.17091454272863568	0.8245877061469266	0.9400299850074962	
1.710400231733604E12	1.858695652173913	-6.413043478260869	3.793478260869565	3944.322344322344	128.0	128.0	-6.409304906046976	13.91695009672047	7.507645190673494	492.58372874065986	584.015779377911	-3.32824427480916	6.488549618320611	0.9770992366412213	0.1649175412293853	0.8275862068965517	0.9415292353823088	
1.7104002317531357E12	1.9239130434782608	-6.33695652173913	3.7282608695652173	3954.5787545787543	128.0	128.0	-6.394592093776715	13.910819758274528	7.516227664497813	492.59743185012724	584.0210442568117	-2.763358778625954	4.8396946564885495	0.48854961832061067	0.1664167916041979	0.8185907046476761	0.9475262368815592	
1.7104002317726677E12	1.858695652173913	-6.293478260869565	3.8043478260869565	3954.5787545787543	128.0	128.0	-6.404689121805325	13.909016717555133	7.504327595749808	492.60825009444363	584.0159957427974	-2.1526717557251906	7.038167938931298	0.6870229007633587	0.1829085457271364	0.8245877061469266	0.9370314842578711	
1.7104002317921997E12	1.8804347826086956	-6.315217391304348	3.6739130434782608	3953.113553113553	128.0	128.0	-6.3984145401018315	13.920051326757829	7.521636786655997	492.5812044836527	584.0324394741583	-3.297709923664122	5.862595419847328	0.9312977099236641	0.17691154422788605	0.8305847076461769	0.9340329835082458	
1.7104002318117317E12	1.891304347826087	-6.326086956521739	3.782608695652174	3954.5787545787543	128.0	128.0	-6.402020621540621	13.913920988311887	7.511900366771266	492.58697421395476	584.0493159352918	-3.5877862595419847	5.66412213740458	0.732824427480916	0.16941529235382308	0.8305847076461769	0.9175412293853074	
1.7104002318312637E12	1.8804347826086956	-6.369565217391304	3.858695652173913	3931.135531135531	128.0	128.0	-6.403174567601034	13.933465949710126	7.530291382109092	492.5867578490684	584.048955327148	-4.763358778625954	6.8396946564885495	0.8396946564885496	0.17241379310344826	0.8275862068965517	0.9415292353823088	
1.7104002318507957E12	1.891304347826087	-6.413043478260869	3.760869565217391	3956.043956043956	128.0	128.0	-6.394375728890387	13.917310704864349	7.522934975973961	492.5942584984611	584.0459983403681	-3.541984732824427	5.816793893129771	0.5801526717557252	0.17241379310344826	0.8230884557721139	0.9415292353823088	
1.7104002318703276E12	1.858695652173913	-6.358695652173913	3.793478260869565	3954.5787545787543	128.0	128.0	-6.394015120746508	13.911324609675958	7.51730948892945	492.60327370205806	584.0333049337036	-2.717557251908397	6.534351145038167	0.2900763358778626	0.17841079460269865	0.8215892053973013	0.9250374812593702	
1.7104002318898596E12	1.8478260869565217	-6.369565217391304	3.7717391304347827	3945.7875457875457	128.0	128.0	-6.403967905517567	13.924378624484376	7.520410718966809	492.59620578243806	584.0396516370358	-2.748091603053435	6.091603053435114	0.8091603053435115	0.16941529235382308	0.841079460269865	0.952023988005997	
1.7104002319093916E12	1.9021739130434783	-6.326086956521739	3.793478260869565	3954.5787545787543	128.0	128.0	-6.4097376358196305	13.910314906873097	7.500577271053467	492.618419244101	584.03056431181	-2.198473282442748	5.3893129770992365	0.32061068702290074	0.15892053973013492	0.8110944527736131	0.9430284857571214	
1.7104002319289236E12	1.8804347826086956	-6.358695652173913	3.7717391304347827	3954.5787545787543	128.0	128.0	-6.418608596159053	13.93699990952014	7.518391313361087	492.6029130939142	584.0352522176805	-2.8702290076335877	6.259541984732824	0.6717557251908397	0.15592203898050974	0.8290854572713643	0.9325337331334332	
1.7104002319484556E12	1.8804347826086956	-6.3478260869565215	3.8152173913043477	3954.5787545787543	128.0	128.0	-6.390409039307719	13.968228574780056	7.577819535472338	492.6093319188752	584.0293382441209	-2.5038167938931295	5.786259541984733	0.6717557251908397	0.1649175412293853	0.8230884557721139	0.9340329835082458	
1.7104002319679875E12	1.891304347826087	-6.315217391304348	3.760869565217391	3954.5787545787543	128.0	128.0	-6.367690726243344	14.013665200908804	7.6459744746654605	492.6374593540978	584.0052496201098	-2.4122137404580153	6.106870229007633	0.47328244274809156	0.17091454272863568	0.8290854572713643	0.9295352323838081	
1.7104002319875195E12	1.9130434782608696	-6.33695652173913	3.793478260869565	3934.065934065934	128.0	128.0	-6.3886781202171	13.949404829669575	7.560726709452476	492.5702419960788	584.020323040524	-3.465648854961832	5.679389312977099	0.48854961832061067	0.17391304347826086	0.8245877061469266	0.9400299850074962	
1.7104002320070515E12	1.891304347826087	-6.326086956521739	3.7717391304347827	3956.043956043956	128.0	128.0	-6.4025254729420515	13.906780947063083	7.504255474121032	492.5596401166487	584.0338819067338	-3.236641221374046	5.847328244274809	0.564885496183206	0.17241379310344826	0.8230884557721139	0.9415292353823088	
1.7104002320265835E12	1.9130434782608696	-6.33695652173913	3.760869565217391	3956.043956043956	128.0	128.0	-6.413992811917402	13.88370202585483	7.469709213937428	492.5603613329365	584.0268139871138	-2.8702290076335877	6.030534351145038	0.9007633587786259	0.17391304347826086	0.8245877061469266	0.9400299850074962	
1.7104002320461155E12	1.9021739130434783	-6.304347826086956	3.75	3945.7875457875457	128.0	128.0	-6.412045527940456	13.8808171607038	7.468771632763342	492.55740434615666	584.0334491769611	-2.595419847328244	5.465648854961832	0.7175572519083969	0.17091454272863568	0.8290854572713643	0.9505247376311844	
1.7104002320656475E12	1.891304347826087	-6.3478260869565215	3.760869565217391	3954.5787545787543	128.0	128.0	-6.428200772786233	13.878148660439095	7.449947887652861	492.5545194810056	584.0457819754818	-3.8625954198473282	6.381679389312977	0.7633587786259541	0.17241379310344826	0.8125937031484257	0.9340329835082458	
1.7104002320851794E12	1.9239130434782608	-6.3478260869565215	3.75	3954.5787545787543	128.0	128.0	-6.199070358165546	14.060472137984293	7.861401779818747	492.56165952225444	584.1093211304333	-3.969465648854962	6.244274809160305	0.916030534351145	0.1649175412293853	0.8230884557721139	0.9340329835082458	
1.7104002321047112E12	1.891304347826087	-6.358695652173913	3.8043478260869565	3953.113553113553	128.0	128.0	-5.930994264005931	14.725361433668308	8.794367169662378	492.5829354027433	583.6264668257793	-2.8702290076335877	6.961832061068702	0.7480916030534351	0.1619190404797601	0.8305847076461769	0.9415292353823088	
1.7104002321242432E12	1.9456521739130435	-6.380434782608695	3.760869565217391	3954.5787545787543	128.0	128.0	-6.424811056233771	13.796795463180002	7.371984406946232	492.60839433770116	583.8894222842958	-3.2671755725190836	6.519083969465648	0.916030534351145	0.1829085457271364	0.8365817091454273	0.9475262368815592	
1.7104002321437751E12	1.8804347826086956	-6.271739130434782	3.760869565217391	3931.135531135531	128.0	128.0	-6.369205280447636	13.897188770435903	7.527983489988267	492.6090434323601	584.0638845043045	-2.854961832061069	5.908396946564885	0.549618320610687	0.17691154422788605	0.8275862068965517	0.9310344827586207	
1.7104002321633071E12	1.9021739130434783	-6.304347826086956	3.760869565217391	3954.5787545787543	128.0	128.0	-6.369349523705187	13.921926489106	7.552576965400811	492.5976482150136	584.0845112901344	-4.213740458015267	7.007633587786259	0.48854961832061067	0.17241379310344826	0.8275862068965517	0.9460269865067465	
1.710400232182839E12	1.8695652173913042	-6.282608695652174	3.7282608695652173	3954.5787545787543	128.0	128.0	-6.362497968971487	13.941471450504238	7.578973481532751	492.59678275546827	584.1050659543355	-2.7022900763358777	7.480916030534351	0.38167938931297707	0.17691154422788605	0.8200899550224887	0.9385307346326837	
1.710400232202371E12	2.0	-6.282608695652174	3.641304347826087	3945.7875457875457	128.0	128.0	-6.342808764315697	13.918031921152107	7.57522315683641	492.5970712419834	584.1176872393712	-4.152671755725191	7.068702290076335	0.42748091603053434	0.17391304347826086	0.8395802098950524	0.9580209895052474	
1.710400232221903E12	1.9239130434782608	-6.304347826086956	3.717391304347826	3954.5787545787543	128.0	128.0	-6.330115357651158	13.947313302435077	7.6171979447839195	492.62115986599446	584.1339146058458	-5.343511450381679	7.511450381679389	0.549618320610687	0.15742128935532235	0.8125937031484257	0.9490254872563718	
1.710400232241435E12	1.9021739130434783	-6.380434782608695	3.717391304347826	3954.5787545787543	128.0	128.0	-6.318720140304583	13.95993458747084	7.641214447166258	492.6288047586447	584.1535316888728	-7.465648854961832	7.099236641221374	0.366412213740458	0.17091454272863568	0.8440779610194902	0.9430284857571214	
1.710400232260967E12	1.8804347826086956	-6.358695652173913	3.7282608695652173	3951.6483516483513	128.0	128.0	-6.28157750148505	13.993471144851583	7.711893643366533	492.6290932451598	584.2062525995079	-4.33587786259542	5.984732824427481	0.3511450381679389	0.18440779610194902	0.8200899550224887	0.9385307346326837	
1.710400232280499E12	1.9239130434782608	-6.380434782608695	3.6956521739130435	3954.5787545787543	128.0	128.0	-6.232606915546288	13.997509956063027	7.76490304051674	492.6056537158077	584.2366158052225	-3.3740458015267176	6.564885496183206	0.41221374045801523	0.17091454272863568	0.8215892053973013	0.9325337331334332	
1.710400232300031E12	1.9456521739130435	-6.358695652173913	3.6304347826086953	3928.205128205128	128.0	128.0	-6.14793612336351	14.007246375947759	7.859310252584249	492.6122889056551	584.3093144070285	-3.877862595419847	7.450381679389313	0.6412213740458015	0.17091454272863568	0.8215892053973013	0.9325337331334332	
1.710400232319563E12	1.8804347826086956	-6.304347826086956	3.6739130434782608	3956.043956043956	128.0	128.0	-6.101706159318228	14.029243472724374	7.927537313406147	492.6049324995199	584.3279939088815	-2.916030534351145	7.1603053435114505	0.47328244274809156	0.1649175412293853	0.815592203898051	0.9340329835082458	
1.710400232339095E12	1.8695652173913042	-6.33695652173913	3.7282608695652173	3956.043956043956	128.0	128.0	-6.074732670156083	14.042658095676673	7.9679254255205905	492.6290932451598	584.2909955133194	-4.67175572519084	7.404580152671755	0.48854961832061067	0.1664167916041979	0.8245877061469266	0.9475262368815592	
1.710400232358627E12	1.9021739130434783	-6.33695652173913	3.717391304347826	3945.7875457875457	128.0	128.0	-6.1882521138491775	14.06191457055981	7.873662456710632	492.63846905690065	584.1804330564062	-4.2748091603053435	7.480916030534351	0.48854961832061067	0.1829085457271364	0.8440779610194902	0.9400299850074962	
1.710400232378159E12	1.934782608695652	-6.358695652173913	3.6956521739130435	3954.5787545787543	128.0	128.0	-6.293982421634486	14.011068822272875	7.71708640063839	492.59461910660497	584.1154514688792	-3.6488549618320607	7.175572519083969	0.5801526717557252	0.17241379310344826	0.8350824587706147	0.9460269865067465	
1.710400232397691E12	1.9239130434782608	-6.369565217391304	3.717391304347826	3956.043956043956	128.0	128.0	-6.3932939044587505	13.951496356904073	7.5582024524453235	492.6226744201988	584.0675627073721	-3.633587786259542	7.801526717557252	0.47328244274809156	0.17691154422788605	0.8275862068965517	0.9415292353823088	
1.710400232417223E12	1.9239130434782608	-6.358695652173913	3.6956521739130435	3954.5787545787543	128.0	128.0	-6.412261892826783	13.945077531943028	7.532815639116245	492.5894984709619	584.0578984091161	-3.114503816793893	7.694656488549618	0.6412213740458015	0.1649175412293853	0.8200899550224887	0.9280359820089955	
1.710400232436755E12	1.9130434782608696	-6.33695652173913	3.7065217391304346	3956.043956043956	128.0	128.0	-6.418031623128846	13.92791258429439	7.5098809611655435	492.6294538533037	584.0555905169953	-3.145038167938931	7.8473282442748085	0.8549618320610687	0.17691154422788605	0.8350824587706147	0.9460269865067465	
1.7104002324562866E12	1.9021739130434783	-6.391304347826087	3.6956521739130435	3941.391941391941	128.0	128.0	-6.412117649569232	13.92618166520377	7.514064015634539	492.6517394365954	584.0506862462386	-3.5267175572519083	7.9541984732824424	0.6717557251908397	0.1664167916041979	0.8320839580209894	0.9430284857571214	
1.7104002324758186E12	1.934782608695652	-6.369565217391304	3.7717391304347827	3956.043956043956	128.0	128.0	-6.417526771727416	13.93288897667992	7.5153622049525035	492.6086107025875	584.0462147052544	-2.7022900763358777	8.244274809160306	0.6870229007633587	0.17991004497751123	0.8275862068965517	0.9310344827586207	
1.7104002324953506E12	1.9239130434782608	-6.326086956521739	3.5543478260869565	3956.043956043956	128.0	128.0	-6.411540676539025	13.930076233157664	7.518535556618638	492.5816372134253	584.0528498951018	-1.297709923664122	4.916030534351145	0.564885496183206	0.17691154422788605	0.815592203898051	0.9640179910044977	
1.7104002325148826E12	1.8043478260869565	-6.271739130434782	3.782608695652174	3944.322344322344	128.0	128.0	-6.41060309536494	13.925460448916013	7.514857353551073	492.59829730967255	584.0524171653292	-1.984732824427481	7.862595419847328	0.24427480916030533	0.1664167916041979	0.8110944527736131	0.9505247376311844	
1.7104002325344146E12	1.9021739130434783	-6.391304347826087	3.760869565217391	3954.5787545787543	128.0	128.0	-6.403463054116137	13.932167760392161	7.528704706276025	492.5776705238427	584.059845693093	-5.938931297709924	6.244274809160305	-0.030534351145038167	0.1829085457271364	0.8290854572713643	0.9550224887556221	
1.7104002325539465E12	1.9239130434782608	-6.358695652173913	3.782608695652174	3954.5787545787543	128.0	128.0	-6.395241188435697	13.920628299788035	7.525387111352338	492.55567342706604	584.0484504757464	-2.7022900763358777	5.709923664122138	-0.061068702290076333	0.18440779610194902	0.815592203898051	0.9490254872563718	
1.7104002325734785E12	1.9130434782608696	-6.391304347826087	3.7717391304347827	3951.6483516483513	128.0	128.0	-6.405049729949204	13.923224678423963	7.518174948474759	492.5779590103578	584.0659039099103	-3.1755725190839694	7.541984732824427	0.0	0.1874062968515742	0.8305847076461769	0.9415292353823088	
1.7104002325930105E12	1.891304347826087	-6.434782608695652	3.717391304347826	3954.5787545787543	128.0	128.0	-6.395169066806921	13.912694920622698	7.517525853815777	492.5719729151694	584.0429692319595	-4.229007633587786	8.366412213740457	0.061068702290076333	0.17091454272863568	0.8245877061469266	0.9430284857571214	
1.7104002326125425E12	1.9021739130434783	-6.391304347826087	3.7391304347826084	3929.6703296703295	128.0	128.0	-6.4069970139261505	13.915868272288833	7.508871258362682	492.5951239580064	584.0423201373005	-2.213740458015267	7.312977099236641	0.5343511450381679	0.1619190404797601	0.8125937031484257	0.9460269865067465	
1.7104002326320745E12	1.9021739130434783	-6.380434782608695	3.7391304347826084	3954.5787545787543	128.0	128.0	-6.404328513661446	13.905843365888998	7.501514852227552	492.6222416904261	584.0462868268833	-2.381679389312977	7.267175572519084	0.8091603053435115	0.16941529235382308	0.8230884557721139	0.9490254872563718	
1.7104002326516064E12	1.9130434782608696	-6.369565217391304	3.7391304347826084	3954.5787545787543	128.0	128.0	-6.399568486162244	13.921421637704569	7.521853151542325	492.606519175353	584.036694650256	-3.450381679389313	6.778625954198473	0.4580152671755725	0.17391304347826086	0.8245877061469266	0.9430284857571214	
1.7104002326711384E12	1.891304347826087	-6.3478260869565215	3.75	3945.7875457875457	128.0	128.0	-6.373099848401528	13.95531880322919	7.5822189548276615	492.5965663905819	584.033809785105	-2.9923664122137406	6.687022900763359	0.48854961832061067	0.17691154422788605	0.8200899550224887	0.952023988005997	
1.7104002326906704E12	1.9130434782608696	-6.3478260869565215	3.7717391304347827	3954.5787545787543	128.0	128.0	-6.351030629996137	13.985177157542367	7.634146527546231	492.60183126948255	584.0156351346535	-2.946564885496183	6.366412213740458	0.48854961832061067	0.17391304347826086	0.8245877061469266	0.9400299850074962	
1.7104002327102024E12	1.9130434782608696	-6.358695652173913	3.75	3954.5787545787543	128.0	128.0	-6.3686283074174295	13.936567179747485	7.567938872330055	492.59678275546827	584.0082787285183	-3.3740458015267176	6.045801526717557	0.33587786259541985	0.1634182908545727	0.8290854572713643	0.9400299850074962	
1.7104002327297344E12	1.934782608695652	-6.315217391304348	3.75	3953.113553113553	128.0	128.0	-6.400001215934899	13.891563283391392	7.491562067456492	492.60356218857316	584.0163563509412	-3.16030534351145	6.1679389312977095	0.04580152671755725	0.17391304347826086	0.8365817091454273	0.9370314842578711	
1.7104002327492664E12	1.9456521739130435	-6.33695652173913	3.793478260869565	3954.5787545787543	128.0	128.0	-6.404833365062877	13.86487828074435	7.460044915681472	492.6122889056551	584.0123175397298	-3.129770992366412	6.961832061068702	-0.04580152671755725	0.1634182908545727	0.8215892053973013	0.9475262368815592	
1.71040023278833E12	1.9130434782608696	-6.293478260869565	3.7391304347826084	3956.043956043956	128.0	128.0	-6.4124782577131105	13.864589794229246	7.452111536516135	492.6357284350072	584.0274630817727	-3.7404580152671754	6.6106870229007635	-0.16793893129770993	0.17091454272863568	0.8500749625187406	0.9370314842578711	
1.710400232807862E12	1.9130434782608696	-6.380434782608695	3.7391304347826084	3954.5787545787543	128.0	128.0	-6.235347537439768	13.993254779965255	7.757907242525488	492.63096840750796	584.1137205497886	-5.236641221374046	6.793893129770992	-0.061068702290076333	0.17991004497751123	0.8200899550224887	0.9415292353823088	
1.710400232827394E12	1.9456521739130435	-6.4021739130434785	3.7282608695652173	3944.322344322344	128.0	128.0	-5.860026581290553	14.588041852479202	8.72801527118865	492.62274654182755	583.6086527834717	-5.083969465648854	7.206106870229007	-0.07633587786259542	0.17241379310344826	0.8200899550224887	0.9340329835082458	
1.710400232846926E12	1.9782608695652173	-6.413043478260869	3.717391304347826	3956.043956043956	128.0	128.0	-6.39278905305732	13.77198562288113	7.379196569823811	492.6321223535684	583.8222770479056	-3.5267175572519083	7.206106870229007	0.13740458015267176	0.17391304347826086	0.8290854572713643	0.9325337331334332	
1.710400232866458E12	1.9456521739130435	-6.326086956521739	3.75	3956.043956043956	128.0	128.0	-6.3504536569659304	13.865238888888229	7.514785231922297	492.6103416216781	584.0356128258244	-3.5572519083969465	5.297709923664122	0.21374045801526717	0.191904047976012	0.8275862068965517	0.9235382308845577	
1.71040023288599E12	1.9021739130434783	-6.391304347826087	3.7065217391304346	3954.5787545787543	128.0	128.0	-6.358026427987388	13.892068134792822	7.534041706805433	492.63695450269637	584.0749191135072	-5.312977099236641	8.687022900763358	-0.366412213740458	0.1829085457271364	0.8290854572713643	0.9370314842578711	
1.710400232905522E12	1.9456521739130435	-6.315217391304348	3.7065217391304346	3947.252747252747	128.0	128.0	-6.346919697155917	13.895746337860388	7.54882664070447	492.6143083112608	584.0850882631646	-3.5877862595419847	6.824427480916031	-0.32061068702290074	0.1619190404797601	0.8350824587706147	0.9385307346326837	
1.710400232925054E12	2.0	-6.271739130434782	3.6739130434782608	3931.135531135531	128.0	128.0	-6.333865682347499	13.909665812214115	7.575800129866616	492.62815566398575	584.089127074376	-3.16030534351145	8.625954198473282	0.3969465648854962	0.1619190404797601	0.8305847076461769	0.9340329835082458	
1.710400232944586E12	1.9565217391304348	-6.33695652173913	3.652173913043478	3954.5787545787543	128.0	128.0	-6.312661923487417	13.920411934901708	7.607750011414291	492.63666601618127	584.1250436455064	-4.442748091603053	8.213740458015266	0.4427480916030534	0.1664167916041979	0.8110944527736131	0.9475262368815592	
1.710400232964118E12	1.934782608695652	-6.380434782608695	3.760869565217391	3954.5787545787543	128.0	128.0	-6.2962903137553115	13.932744733422368	7.636454419667056	492.6410654355366	584.1409825254658	-5.969465648854961	8.82442748091603	0.061068702290076333	0.17841079460269865	0.8215892053973013	0.9475262368815592	
1.71040023298365E12	1.9565217391304348	-6.445652173913043	3.7282608695652173	3944.322344322344	128.0	128.0	-6.253810674406371	13.946303599632216	7.692492925225846	492.62418897440307	584.1681723795143	-6.778625954198473	7.2824427480916025	0.030534351145038167	0.15892053973013492	0.8290854572713643	0.9430284857571214	
1.710400233003182E12	1.9782608695652173	-6.423913043478261	3.717391304347826	3956.043956043956	128.0	128.0	-6.223086860547884	13.974791642998653	7.75170478245077	492.62000591993404	584.2301248586327	-5.374045801526718	6.885496183206107	-0.48854961832061067	0.17241379310344826	0.8230884557721139	0.9565217391304347	
1.7104002330227139E12	1.9891304347826086	-6.4021739130434785	3.6630434782608696	3953.113553113553	128.0	128.0	-6.152840394120264	14.006453038031225	7.853612643910962	492.63435812406044	584.2981355545683	-4.1679389312977095	6.977099236641221	-0.42748091603053434	0.17091454272863568	0.8320839580209894	0.9400299850074962	
1.7104002330422458E12	1.9891304347826086	-6.391304347826087	3.641304347826087	3953.113553113553	128.0	128.0	-6.10048009162904	14.033138040678269	7.932657949049229	492.6508018554213	584.3127762452098	-3.9083969465648853	7.49618320610687	-0.4427480916030534	0.15592203898050974	0.8185907046476761	0.9400299850074962	
1.7104002330617778E12	1.9456521739130435	-6.33695652173913	3.684782608695652	3956.043956043956	128.0	128.0	-6.073795088981997	14.052755123705284	7.978960034723286	492.62361200137286	584.2837112288131	-3.877862595419847	7.511450381679389	-0.3969465648854962	0.1634182908545727	0.8215892053973013	0.9325337331334332	
1.7104002330813098E12	1.9565217391304348	-6.326086956521739	3.6739130434782608	3947.252747252747	128.0	128.0	-6.153561610408022	14.045759325714032	7.89219771530601	492.6158228654651	584.1620420410684	-4.244274809160305	6.900763358778626	-0.24427480916030533	0.17391304347826086	0.8290854572713643	0.9550224887556221	
1.7104002331008418E12	1.9565217391304348	-6.358695652173913	3.641304347826087	3954.5787545787543	128.0	128.0	-6.266864689214789	13.979768035384183	7.712903346169394	492.62483806906204	584.081410060097	-4.1679389312977095	6.641221374045801	-0.24427480916030533	0.17091454272863568	0.8470764617691154	0.9475262368815592	
1.7104002331203738E12	1.9456521739130435	-6.326086956521739	3.684782608695652	3954.5787545787543	128.0	128.0	-6.345909994353056	13.910314906873097	7.564404912520041	492.62231381205487	584.030275825295	-4.748091603053435	6.7328244274809155	-0.030534351145038167	0.1649175412293853	0.8200899550224887	0.9385307346326837	
1.7104002331399055E12	1.9782608695652173	-6.380434782608695	3.641304347826087	3942.8571428571427	128.0	128.0	-6.374542280977044	13.901948797935106	7.52740651695806	492.61863560898735	584.0049611335946	-3.801526717557252	6.854961832061068	-0.07633587786259542	0.16941529235382308	0.8305847076461769	0.9340329835082458	
1.7104002331594375E12	1.967391304347826	-6.380434782608695	3.652173913043478	3954.5787545787543	128.0	128.0	-6.3788695787035925	13.891274796876289	7.512405218172696	492.6057979590652	584.0062593229127	-3.709923664122137	6.671755725190839	0.183206106870229	0.17841079460269865	0.8290854572713643	0.9475262368815592	
1.7104002331789695E12	1.9782608695652173	-6.391304347826087	3.6304347826086953	3956.043956043956	128.0	128.0	-6.389543579762409	13.902814257480415	7.513270677718006	492.6076009997846	584.0004174709818	-3.480916030534351	6.045801526717557	0.549618320610687	0.1634182908545727	0.8245877061469266	0.9400299850074962	
1.7104002331985015E12	2.032608695652174	-6.391304347826087	3.7065217391304346	3954.5787545787543	128.0	128.0	-6.372883483515201	13.898486959753868	7.525603476238666	492.62454958254693	584.006115079655	-4.122137404580153	5.435114503816794	0.732824427480916	0.1634182908545727	0.8320839580209894	0.9430284857571214	
1.7104002332180334E12	2.010869565217391	-6.3478260869565215	3.6630434782608696	3956.043956043956	128.0	128.0	-6.372090145598667	13.911540974562286	7.539450828963617	492.6246217041757	584.0039514307919	-3.4045801526717554	6.595419847328244	0.8396946564885496	0.1649175412293853	0.815592203898051	0.9460269865067465	
1.7104002332375654E12	1.967391304347826	-6.326086956521739	3.684782608695652	3931.135531135531	128.0	128.0	-6.359036130790249	13.896972405549576	7.537936274759326	492.651234585194	584.0027253631026	-3.297709923664122	6.3969465648854955	0.6106870229007634	0.18440779610194902	0.8230884557721139	0.9460269865067465	
1.7104002332570974E12	2.0	-6.391304347826087	3.652173913043478	3954.5787545787543	128.0	128.0	-6.368484064159878	13.912406434107595	7.543922369947716	492.6272180828116	584.00582659314	-4.290076335877862	6.427480916030534	0.5954198473282443	0.1664167916041979	0.8320839580209894	0.9370314842578711	
1.7104002332766294E12	1.9782608695652173	-6.3478260869565215	3.717391304347826	3956.043956043956	128.0	128.0	-6.363291306888021	13.926902881491529	7.563611574603508	492.62902112353106	583.99522471371	-3.5267175572519083	5.587786259541985	0.7786259541984732	0.17691154422788605	0.815592203898051	0.9490254872563718	
1.7104002332961614E12	2.0217391304347827	-6.391304347826087	3.6630434782608696	3942.8571428571427	128.0	128.0	-6.3723786321137705	13.929066530354802	7.556687898241032	492.6251986772059	583.9880125508324	-4.305343511450381	5.9541984732824424	0.5801526717557252	0.1829085457271364	0.8290854572713643	0.9325337331334332	
1.7104002333156934E12	2.010869565217391	-6.380434782608695	3.6739130434782608	3956.043956043956	128.0	128.0	-6.372955605143977	13.938298098838104	7.565342493694127	492.6257756502361	583.9760403604556	-3.2519083969465647	6.152671755725191	0.6412213740458015	0.1664167916041979	0.8140929535232384	0.9475262368815592	
1.7104002333352253E12	2.0	-6.391304347826087	3.6630434782608696	3954.5787545787543	128.0	128.0	-6.378076240787059	13.926109543574995	7.548033302787936	492.6144525545183	583.9854882938253	-3.5877862595419847	7.541984732824427	0.916030534351145	0.17691154422788605	0.8230884557721139	0.9460269865067465	
1.7104002333547573E12	1.9782608695652173	-6.391304347826087	3.652173913043478	3954.5787545787543	128.0	128.0	-6.391707228625683	13.943274491223633	7.55156726259795	492.6255592853498	583.9820985772727	-3.0076335877862594	7.343511450381679	1.1450381679389312	0.17841079460269865	0.8320839580209894	0.9400299850074962	
1.7104002333742893E12	1.9891304347826086	-6.369565217391304	3.641304347826087	3954.5787545787543	128.0	128.0	-6.387235687641584	13.92755197615051	7.540316288508927	492.61264951379894	583.969477292237	-2.748091603053435	7.145038167938931	1.0534351145038168	0.17691154422788605	0.8380809595202399	0.9415292353823088	
1.7104002333938213E12	1.967391304347826	-6.391304347826087	3.619565217391304	3950.18315018315	128.0	128.0	-6.4015157701391905	13.947313302435077	7.545797532295887	492.6131543652004	583.9796464418944	-3.236641221374046	6.99236641221374	0.916030534351145	0.17691154422788605	0.841079460269865	0.9385307346326837	
1.7104002334133533E12	1.967391304347826	-6.380434782608695	3.641304347826087	3954.5787545787543	128.0	128.0	-6.397621202185298	13.947746032207732	7.550124830022434	492.61805863595714	583.9759682388268	-3.16030534351145	6.534351145038167	0.9770992366412213	0.17841079460269865	0.8320839580209894	0.9325337331334332	
1.7104002334328853E12	1.9782608695652173	-6.369565217391304	3.652173913043478	3954.5787545787543	128.0	128.0	-6.3929332963148715	13.941471450504238	7.548538154189367	492.5873348220986	583.9748864143952	-3.6946564885496183	6.1679389312977095	0.9770992366412213	0.15892053973013492	0.8290854572713643	0.9400299850074962	
1.7104002334524172E12	1.9782608695652173	-6.358695652173913	3.652173913043478	3941.391941391941	128.0	128.0	-6.385144160407086	13.972555872506604	7.587411712099518	492.58286328111456	583.9733718601909	-3.9083969465648853	6.5038167938931295	1.129770992366412	0.1649175412293853	0.8350824587706147	0.9490254872563718	
1.7104002334719492E12	1.967391304347826	-6.369565217391304	3.641304347826087	3954.5787545787543	128.0	128.0	-6.358964009161474	14.010059119470014	7.651095110308542	492.58012265922105	583.9670972784874	-3.4045801526717554	6.473282442748092	1.1603053435114503	0.18590704647676162	0.8290854572713643	0.9475262368815592	
1.710400233491481E12	1.9891304347826086	-6.380434782608695	3.641304347826087	3953.113553113553	128.0	128.0	-6.339346926134459	14.03876352772278	7.699416601588322	492.60074944505095	583.9559905476559	-3.49618320610687	6.549618320610687	0.8244274809160305	0.1829085457271364	0.8215892053973013	0.9325337331334332	
1.710400233511013E12	1.9565217391304348	-6.380434782608695	3.6630434782608696	3954.5787545787543	128.0	128.0	-6.344034832004885	14.027007702232327	7.682972870227442	492.5607219410804	583.9644287782227	-3.8625954198473282	6.961832061068702	1.0229007633587786	0.17241379310344826	0.8275862068965517	0.9385307346326837	
1.710400233530545E12	1.9565217391304348	-6.369565217391304	3.608695652173913	3954.5787545787543	128.0	128.0	-6.396972107526316	13.965632196144128	7.568660088617813	492.5960615391805	583.9784203742051	-3.7709923664122136	6.641221374045801	0.9007633587786259	0.17241379310344826	0.8200899550224887	0.9385307346326837	
1.710400233550077E12	1.934782608695652	-6.413043478260869	3.619565217391304	3931.135531135531	128.0	128.0	-6.396395134496109	13.952361816449383	7.555966681953273	492.605220986035	583.9795021986369	-3.297709923664122	6.519083969465648	1.0229007633587786	0.1634182908545727	0.8140929535232384	0.9370314842578711	
1.710400233569609E12	1.9782608695652173	-6.369565217391304	3.6304347826086953	3928.205128205128	128.0	128.0	-6.396539377753661	13.962747330993096	7.566207953239436	492.5540146296042	583.9705591166686	-2.778625954198473	6.3206106870229	0.9923664122137404	0.17991004497751123	0.8305847076461769	0.9385307346326837	
1.7104002335891409E12	1.967391304347826	-6.369565217391304	3.652173913043478	3954.5787545787543	128.0	128.0	-6.405193973206756	13.949116343154472	7.543922369947716	492.538003628016	583.9764009685995	-2.6412213740458013	6.33587786259542	1.0687022900763359	0.15892053973013492	0.8185907046476761	0.9505247376311844	
1.7104002336086729E12	1.9565217391304348	-6.369565217391304	3.6304347826086953	3939.9267399267396	128.0	128.0	-6.177722356047911	14.13216103698743	7.954438680939518	492.5638952927465	584.0264533789699	-3.145038167938931	5.984732824427481	0.9618320610687022	0.1664167916041979	0.8365817091454273	0.9370314842578711	
1.7104002336282048E12	1.967391304347826	-6.4021739130434785	3.652173913043478	3956.043956043956	128.0	128.0	-5.82685063205369	14.745483368096755	8.918632736043065	492.59209484959786	583.5054467326936	-2.5343511450381677	6.534351145038167	1.0534351145038168	0.1649175412293853	0.8200899550224887	0.952023988005997	
1.7104002336477368E12	1.967391304347826	-6.4021739130434785	3.5978260869565215	3954.5787545787543	128.0	128.0	-6.394375728890387	13.895313608087733	7.500937879197346	492.60825009444363	583.8016502620758	-2.183206106870229	6.412213740458015	1.2519083969465647	0.1829085457271364	0.8290854572713643	0.9295352323838081	
1.7104002336672688E12	1.9565217391304348	-6.293478260869565	3.6956521739130435	3953.113553113553	128.0	128.0	-6.350237292079603	13.993615388109134	7.643378096029532	492.5698813879349	583.9911137808697	-1.9083969465648853	4.091603053435114	1.282442748091603	0.16941529235382308	0.8305847076461769	0.9460269865067465	
1.7104002336868008E12	1.934782608695652	-6.423913043478261	3.5978260869565215	3954.5787545787543	128.0	128.0	-6.353843373518393	14.00104391587304	7.647200542354649	492.5686553202457	584.014841796737	-3.633587786259542	8.854961832061068	1.0534351145038168	0.17691154422788605	0.8350824587706147	0.9385307346326837	
1.7104002337063328E12	1.934782608695652	-6.315217391304348	3.6956521739130435	3932.6007326007325	128.0	128.0	-6.334803263521584	14.005803943372243	7.67100067985066	492.57319898285857	584.044411664535	-2.183206106870229	4.381679389312977	1.5419847328244274	0.17691154422788605	0.8200899550224887	0.9385307346326837	
1.7104002337258647E12	1.967391304347826	-6.3478260869565215	3.5978260869565215	3929.6703296703295	128.0	128.0	-6.3236965326901124	14.019362809582093	7.695666276891981	492.5793293213045	584.0536432330183	-0.6717557251908397	8.48854961832061	1.2671755725190839	0.17391304347826086	0.8395802098950524	0.9400299850074962	
1.7104002337453967E12	1.9891304347826086	-6.380434782608695	3.641304347826087	3956.043956043956	128.0	128.0	-6.318792261933359	14.047490244804651	7.728697982871292	492.5946912282338	584.0783809516885	-3.0839694656488548	6.076335877862595	1.5877862595419847	0.1664167916041979	0.8365817091454273	0.9610194902548725	
1.7104002337649287E12	1.934782608695652	-6.434782608695652	3.760869565217391	3939.9267399267396	128.0	128.0	-6.2973000165581725	14.063068516620222	7.765768500062049	492.5762280912672	584.1013877512679	-4.290076335877862	8.274809160305344	0.9618320610687022	0.16941529235382308	0.841079460269865	0.9415292353823088	
1.7104002337844607E12	1.9565217391304348	-6.467391304347826	3.717391304347826	3956.043956043956	128.0	128.0	-6.243785768006536	14.085498343169492	7.841712575162957	492.76626858309135	584.1486274181161	-4.549618320610687	6.763358778625954	0.9770992366412213	0.17841079460269865	0.8110944527736131	0.9370314842578711	
1.7104002338039927E12	1.967391304347826	-6.391304347826087	3.6739130434782608	3956.043956043956	128.0	128.0	-6.2077970752474165	14.103961480136096	7.896164404888679	492.7607152176756	584.199473166403	-2.3206106870229006	5.068702290076335	0.5190839694656488	0.17091454272863568	0.8290854572713643	0.9295352323838081	
1.7104002338235244E12	1.9456521739130435	-6.369565217391304	3.652173913043478	3954.5787545787543	128.0	128.0	-6.152840394120264	14.117664589603496	7.9648241954832315	492.6115676893673	584.2420970490095	-2.396946564885496	6.061068702290076	0.10687022900763359	0.16941529235382308	0.8275862068965517	0.9310344827586207	
1.7104002338430564E12	1.9456521739130435	-6.3478260869565215	3.619565217391304	3954.5787545787543	128.0	128.0	-6.082089076291213	14.157547850316508	8.075458774025295	492.58697421395476	584.2851536613887	-2.4580152671755724	5.7251908396946565	0.5343511450381679	0.16941529235382308	0.8200899550224887	0.9310344827586207	
1.7104002338625884E12	1.934782608695652	-6.326086956521739	3.641304347826087	3931.135531135531	128.0	128.0	-6.064347155612369	14.202768111558928	8.13842095594656	492.5699535095637	584.2440443329864	-2.259541984732824	4.67175572519084	0.7633587786259541	0.17091454272863568	0.8215892053973013	0.9475262368815592	
1.7104002338821204E12	1.9456521739130435	-6.358695652173913	3.6956521739130435	3954.5787545787543	128.0	128.0	-6.1409403253722585	14.200171732923	8.059231407550742	492.57673294266857	584.1194181584618	-2.717557251908397	5.297709923664122	0.5954198473282443	0.16941529235382308	0.841079460269865	0.9460269865067465	
1.7104002339016523E12	1.967391304347826	-6.315217391304348	3.6630434782608696	3954.5787545787543	128.0	128.0	-6.251070052512891	14.148821133234637	7.897751080721746	492.5696650230486	584.0459262187393	-3.312977099236641	5.221374045801526	1.1450381679389312	0.1634182908545727	0.8215892053973013	0.9400299850074962	
1.7104002339211843E12	1.9456521739130435	-6.369565217391304	3.684782608695652	3936.9963369963366	128.0	128.0	-6.349516075791845	14.07576192328476	7.726245847492915	492.5689438067608	583.9832525233331	-2.3206106870229006	5.1603053435114505	1.1450381679389312	0.17091454272863568	0.8245877061469266	0.9325337331334332	
1.7104002339407163E12	1.967391304347826	-6.4021739130434785	3.6630434782608696	3956.043956043956	128.0	128.0	-6.3857211334372925	14.064438827566962	7.678717694129669	492.5568994947552	583.9732276169333	-4.122137404580153	5.648854961832061	0.916030534351145	0.17091454272863568	0.8290854572713643	0.9475262368815592	
1.7104002339602483E12	2.0	-6.369565217391304	3.6739130434782608	3954.5787545787543	128.0	128.0	-6.392428444913441	14.055063015826109	7.662634570912668	492.5637510494889	583.957577223489	-2.6412213740458013	4.580152671755725	1.1908396946564885	0.1634182908545727	0.8140929535232384	0.9295352323838081	
1.7104002339797803E12	1.9891304347826086	-6.380434782608695	3.652173913043478	3953.113553113553	128.0	128.0	-6.3970442291550915	14.055928475371418	7.658884246216327	492.58452207857636	583.9685397110629	-1.8473282442748091	4.778625954198473	1.3740458015267174	0.17691154422788605	0.8200899550224887	0.9340329835082458	
1.7104002339993123E12	2.032608695652174	-6.369565217391304	3.684782608695652	3956.043956043956	128.0	128.0	-6.387596295785463	14.046047812229135	7.658451516443672	492.5965663905819	583.9700542652672	-3.068702290076336	5.312977099236641	1.6793893129770991	0.17391304347826086	0.8110944527736131	0.9475262368815592	
1.7104002340188442E12	2.0	-6.3478260869565215	3.7391304347826084	3931.135531135531	128.0	128.0	-6.380744741051763	14.045254474312602	7.6645097332608385	492.5812044836527	583.9686118326916	-0.6870229007633587	6.564885496183206	1.618320610687023	0.15892053973013492	0.8290854572713643	0.9325337331334332	
1.7104002340383762E12	1.9456521739130435	-6.33695652173913	3.641304347826087	3956.043956043956	128.0	128.0	-6.394592093776715	14.06068850287062	7.666096409093906	492.5857481462656	583.9642124133363	-2.4885496183206106	6.900763358778626	1.465648854961832	0.17991004497751123	0.8305847076461769	0.9280359820089955	
1.7104002340579082E12	1.9891304347826086	-6.369565217391304	3.7282608695652173	3954.5787545787543	128.0	128.0	-6.389615701391185	14.069343098323715	7.67972739693253	492.57601172638084	583.9687560759493	-2.9923664122137406	5.770992366412213	1.5572519083969465	0.17241379310344826	0.8050974512743628	0.9415292353823088	
1.7104002340774402E12	1.967391304347826	-6.380434782608695	3.7717391304347827	3938.461538461538	128.0	128.0	-6.396467256124885	14.076194653057415	7.67972739693253	492.5549522107783	583.9728670087894	-3.32824427480916	6.076335877862595	1.1450381679389312	0.17391304347826086	0.8245877061469266	0.9400299850074962	
1.7104002340969722E12	1.967391304347826	-6.4021739130434785	3.684782608695652	3957.5091575091574	128.0	128.0	-6.401443648510415	14.074247369080469	7.672803720570054	492.60341794531564	583.9568560072013	-4.030534351145038	6.137404580152672	0.9312977099236641	0.15892053973013492	0.8215892053973013	0.9475262368815592	
1.7104002341165042E12	1.9565217391304348	-6.391304347826087	3.7282608695652173	3956.043956043956	128.0	128.0	-6.404544878547774	14.073598274421487	7.669053395873713	492.5692322932759	583.9519517364445	-2.595419847328244	6.366412213740458	1.2366412213740459	0.18590704647676162	0.8215892053973013	0.9325337331334332	
1.7104002341360361E12	1.9565217391304348	-6.369565217391304	3.7065217391304346	3954.5787545787543	128.0	128.0	-6.396827864268764	14.074031004194142	7.6772031399253775	492.5525000753999	583.9473359522028	-2.7938931297709924	7.32824427480916	1.0534351145038168	0.1619190404797601	0.8275862068965517	0.9460269865067465	
1.710400234155568E12	1.9565217391304348	-6.33695652173913	3.6739130434782608	3954.5787545787543	128.0	128.0	-6.3987751482457105	14.06653035480146	7.667755206555749	492.58697421395476	583.9481292901194	-2.259541984732824	6.671755725190839	1.297709923664122	0.1664167916041979	0.8290854572713643	0.9475262368815592	
1.7104002341750999E12	1.9565217391304348	-6.33695652173913	3.7282608695652173	3954.5787545787543	128.0	128.0	-6.406780649039823	14.06653035480146	7.659749705761636	492.5713959421392	583.945028060082	-1.5572519083969465	6.824427480916031	1.129770992366412	0.17091454272863568	0.8215892053973013	0.9475262368815592	
1.7104002341946318E12	1.934782608695652	-6.358695652173913	3.6630434782608696	3956.043956043956	128.0	128.0	-6.414569784947608	14.068621882035957	7.654052097088349	492.5745692938053	583.9442347221654	-3.0534351145038165	6.595419847328244	0.9312977099236641	0.17691154422788605	0.8305847076461769	0.952023988005997	
1.7104002342141638E12	1.9456521739130435	-6.369565217391304	3.6630434782608696	3954.5787545787543	128.0	128.0	-6.413055230743317	14.075401315140882	7.662346084397565	492.58466632183394	583.928295842206	-2.7022900763358777	6.671755725190839	0.9923664122137404	0.1829085457271364	0.8290854572713643	0.9370314842578711	
1.7104002342336958E12	1.967391304347826	-6.3478260869565215	3.6630434782608696	3935.531135531135	128.0	128.0	-6.405915189494514	14.075401315140882	7.669486125646368	492.56973714467733	583.9346425455383	-3.0076335877862594	6.671755725190839	0.7480916030534351	0.17691154422788605	0.8350824587706147	0.9415292353823088	
1.7104002342532278E12	1.9456521739130435	-6.380434782608695	3.684782608695652	3956.043956043956	128.0	128.0	-6.403174567601034	14.101725709644047	7.698551142043012	492.58077175388	583.9240406661082	-2.8702290076335877	6.916030534351145	0.9007633587786259	0.17991004497751123	0.8230884557721139	0.9385307346326837	
1.7104002342727598E12	1.934782608695652	-6.391304347826087	3.6739130434782608	3954.5787545787543	128.0	128.0	-6.385432646922189	14.12667979320047	7.74124714627828	492.57644445615347	583.9250503689111	-2.763358778625954	6.65648854961832	0.47328244274809156	0.17841079460269865	0.8245877061469266	0.9430284857571214	
1.7104002342922917E12	1.934782608695652	-6.369565217391304	3.717391304347826	3954.5787545787543	128.0	128.0	-6.347568791814899	14.175866744025559	7.82829795221066	492.5356236142664	583.9225982335328	-3.2213740458015265	6.946564885496183	0.5190839694656488	0.17391304347826086	0.8290854572713643	0.9295352323838081	
1.7104002343118237E12	1.9239130434782608	-6.423913043478261	3.717391304347826	3954.5787545787543	128.0	128.0	-6.339779655907114	14.142835038046247	7.803055382139132	492.5441339664619	583.9277909908046	-3.0534351145038165	6.381679389312977	0.7175572519083969	0.16941529235382308	0.8200899550224887	0.9415292353823088	
1.7104002343313557E12	1.9456521739130435	-6.33695652173913	3.6956521739130435	3932.6007326007325	128.0	128.0	-6.387163566012808	14.09018624903992	7.703022683027111	492.59115726842373	583.9436577491352	-1.1450381679389312	6.625954198473282	0.366412213740458	0.17841079460269865	0.8290854572713643	0.9430284857571214	
1.7104002343508877E12	1.9130434782608696	-6.326086956521739	3.7065217391304346	3954.5787545787543	128.0	128.0	-6.395313310064473	14.070064314611473	7.674751004547001	492.5916621198252	583.9383928702347	-2.2900763358778624	6.3206106870229	0.22900763358778625	0.17391304347826086	0.8185907046476761	0.9325337331334332	
1.7104002343704197E12	1.967391304347826	-6.315217391304348	3.6630434782608696	3954.5787545787543	128.0	128.0	-6.396683621011213	14.069631584838818	7.672947963827606	492.5826469162282	583.9313970722434	-2.6259541984732824	6.671755725190839	0.42748091603053434	0.1664167916041979	0.8245877061469266	0.9400299850074962	
1.7104002343899517E12	1.9565217391304348	-6.315217391304348	3.684782608695652	3935.531135531135	128.0	128.0	-6.400361824078778	14.056289083515297	7.6559272594365195	492.5835844974023	583.9422153165598	-2.5801526717557253	6.106870229007633	0.7022900763358778	0.1664167916041979	0.8245877061469266	0.9325337331334332	
1.7104002344094836E12	1.934782608695652	-6.369565217391304	3.684782608695652	3956.043956043956	128.0	128.0	-6.2386651323634545	14.167644878345119	7.928979745981663	492.5719729151694	584.0339540283626	-3.3740458015267176	6.824427480916031	0.6870229007633587	0.18440779610194902	0.815592203898051	0.9460269865067465	
1.7104002344290156E12	1.934782608695652	-6.358695652173913	3.7065217391304346	3956.043956043956	128.0	128.0	-5.9256572634765226	14.862464649971088	8.936807386494564	492.59873003944523	583.5556433863215	-2.8244274809160306	6.931297709923664	0.6259541984732824	0.18590704647676162	0.8245877061469266	0.9430284857571214	
1.7104002344485476E12	1.9782608695652173	-6.391304347826087	3.7391304347826084	3954.5787545787543	128.0	128.0	-6.272345933001749	14.373552128500002	8.101206195498252	492.59959549899054	583.5951660388906	-2.6717557251908395	6.152671755725191	0.8091603053435115	0.19490254872563717	0.8305847076461769	0.9385307346326837	
1.7104002344680796E12	1.9239130434782608	-6.293478260869565	3.619565217391304	3954.5787545787543	128.0	128.0	-6.363435550145573	14.065087922225944	7.701652372080371	492.56793410395795	583.9371668025454	-1.7709923664122136	6.7328244274809155	0.32061068702290074	0.17391304347826086	0.8320839580209894	0.9370314842578711	
1.7104002344876116E12	1.9456521739130435	-6.271739130434782	3.717391304347826	3932.6007326007325	128.0	128.0	-6.356223387267994	14.107783926461213	7.7515605391932185	492.5516346158546	583.9747421711377	-5.32824427480916	6.977099236641221	0.6259541984732824	0.17241379310344826	0.8350824587706147	0.9340329835082458	
1.7104002345071436E12	1.9456521739130435	-6.304347826086956	3.619565217391304	3928.205128205128	128.0	128.0	-6.348073643216329	14.121559157557389	7.773485514341059	492.5513461293395	584.000994444012	-2.931297709923664	8.229007633587786	0.732824427480916	0.17091454272863568	0.8320839580209894	0.9250374812593702	
1.7104002345266753E12	2.0217391304347827	-6.271739130434782	3.5652173913043477	3954.5787545787543	128.0	128.0	-6.337255398899961	14.13540651028234	7.798151111382379	492.53627270892537	584.0006338358681	-4.625954198473282	5.969465648854961	1.0229007633587786	0.17691154422788605	0.8020989505247376	0.9340329835082458	
1.7104002345462073E12	1.9891304347826086	-6.293478260869565	3.5978260869565215	3935.531135531135	128.0	128.0	-6.319441356592341	14.149758714408723	7.830317357816382	492.5390133308188	584.0265976222274	-5.862595419847328	7.541984732824427	0.6412213740458015	0.17241379310344826	0.8275862068965517	0.9280359820089955	
1.7104002345657393E12	1.9565217391304348	-6.4021739130434785	3.6630434782608696	3956.043956043956	128.0	128.0	-6.298814570762464	14.144205348992987	7.845390778230522	492.5310799516535	584.0520565571853	-6.625954198473282	6.137404580152672	0.3053435114503817	0.1874062968515742	0.8125937031484257	0.9460269865067465	
1.7104002345852712E12	1.967391304347826	-6.423913043478261	3.684782608695652	3954.5787545787543	128.0	128.0	-6.2695331894794935	14.151778120014445	7.882244930534951	492.53627270892537	584.0749191135072	-3.633587786259542	5.404580152671755	0.1984732824427481	0.16941529235382308	0.815592203898051	0.9490254872563718	
1.7104002346048032E12	1.967391304347826	-6.358695652173913	3.6304347826086953	3956.043956043956	128.0	128.0	-6.220562603540731	14.171972176071666	7.951409572530935	492.55199522399846	584.137087957512	-3.5114503816793894	5.633587786259541	0.3511450381679389	0.17091454272863568	0.8215892053973013	0.9370314842578711	
1.7104002346243352E12	1.9891304347826086	-6.33695652173913	3.652173913043478	3956.043956043956	128.0	128.0	-6.168346544307059	14.18920924534908	8.02086270104202	492.54160970945475	584.1757451505358	-2.9923664122137406	6.763358778625954	0.732824427480916	0.15592203898050974	0.8395802098950524	0.9325337331334332	
1.7104002346438672E12	1.9891304347826086	-6.315217391304348	3.619565217391304	3932.6007326007325	128.0	128.0	-6.090743671744308	14.20565297670996	8.114909304965652	492.5102368009373	584.2154841679912	-3.9847328244274807	6.290076335877862	0.8702290076335878	0.1829085457271364	0.8320839580209894	0.9370314842578711	
1.7104002346633992E12	1.9782608695652173	-6.315217391304348	3.652173913043478	3954.5787545787543	128.0	128.0	-6.0442973428126985	14.218562748260826	8.174265405448129	492.537354533357	584.1995452880318	-3.7404580152671754	6.2748091603053435	1.083969465648855	0.1874062968515742	0.8275862068965517	0.9415292353823088	
1.7104002346829312E12	1.9891304347826086	-6.3478260869565215	3.6630434782608696	3954.5787545787543	128.0	128.0	-6.1176450392776776	14.244815021135214	8.127169981857536	492.5606498194516	584.0908579934667	-4.778625954198473	6.748091603053435	1.129770992366412	0.1829085457271364	0.8395802098950524	0.9505247376311844	
1.7104002347024631E12	2.010869565217391	-6.358695652173913	3.641304347826087	3934.065934065934	128.0	128.0	-6.243280916605105	14.218418505003275	7.975137588398169	492.56591469835223	583.9937822811345	-3.4351145038167936	6.534351145038167	1.0687022900763359	0.17691154422788605	0.8350824587706147	0.9340329835082458	
1.710400234721995E12	2.010869565217391	-6.4021739130434785	3.641304347826087	3956.043956043956	128.0	128.0	-6.319441356592341	14.16093756686897	7.841496210276629	492.54168183108357	583.9455329114834	-3.633587786259542	7.648854961832061	1.1755725190839694	0.17391304347826086	0.8245877061469266	0.9370314842578711	
1.710400234741527E12	2.0	-6.4021739130434785	3.6630434782608696	3956.043956043956	128.0	128.0	-6.3641567664333305	14.129348293465174	7.765191527031843	492.5803390241074	583.9321904101599	-3.709923664122137	7.572519083969465	1.114503816793893	0.17091454272863568	0.8440779610194902	0.9430284857571214	
1.710400234761059E12	2.0	-6.423913043478261	3.652173913043478	3954.5787545787543	128.0	128.0	-6.373821064689286	14.12530948225373	7.751488417564443	492.58142084853904	583.9088951240653	-3.1908396946564883	7.343511450381679	0.9770992366412213	0.17091454272863568	0.8185907046476761	0.9475262368815592	
1.710400234780591E12	1.9565217391304348	-6.467391304347826	3.5652173913043477	3954.5787545787543	128.0	128.0	-6.372234388856219	14.13079072604069	7.75855633718447	492.5848826867203	583.9143763678522	-2.687022900763359	6.229007633587786	0.7786259541984732	0.1829085457271364	0.8245877061469266	0.9580209895052474	
1.710400234800123E12	1.967391304347826	-6.4021739130434785	3.7717391304347827	3954.5787545787543	128.0	128.0	-6.36776284787212	14.120477333125752	7.752714485253631	492.61048586493564	583.91156362433	-1.9083969465648853	7.572519083969465	0.8549618320610687	0.1649175412293853	0.8230884557721139	0.9385307346326837	
1.710400234819655E12	1.9782608695652173	-6.391304347826087	3.510869565217391	3954.5787545787543	128.0	128.0	-6.373316213287856	14.131079212555793	7.757762999267936	492.5959894175517	583.9171169897458	-0.5343511450381679	6.580152671755725	0.5954198473282443	0.18590704647676162	0.8320839580209894	0.9505247376311844	
1.710400234839187E12	1.9239130434782608	-6.293478260869565	3.717391304347826	3954.5787545787543	128.0	128.0	-6.3573052116996305	14.126247063427815	7.768941851728184	492.60572583743647	583.9162515302005	-4.198473282442748	8.549618320610687	0.5343511450381679	0.17841079460269865	0.8215892053973013	0.9430284857571214	
1.7104002348587188E12	1.9239130434782608	-6.380434782608695	3.7282608695652173	3932.6007326007325	128.0	128.0	-6.36502222597864	14.12992526649538	7.76490304051674	492.59743185012724	583.9267812880017	-4.625954198473282	6.65648854961832	0.9923664122137404	0.16941529235382308	0.8305847076461769	0.9235382308845577	
1.7104002348782507E12	1.9891304347826086	-6.369565217391304	3.6739130434782608	3956.043956043956	128.0	128.0	-6.362209482456384	14.131079212555793	7.768869730099408	492.5980809447862	583.9181988141775	-2.259541984732824	7.816793893129771	1.0381679389312977	0.1649175412293853	0.8125937031484257	0.9235382308845577	
1.7104002348977827E12	1.967391304347826	-6.391304347826087	3.7391304347826084	3954.5787545787543	128.0	128.0	-6.358747644275146	14.119467630322891	7.760719986047744	492.5412491013109	583.9109866512998	-3.5725190839694654	8.51908396946565	1.2213740458015268	0.17991004497751123	0.8275862068965517	0.9340329835082458	
1.7104002349173147E12	1.934782608695652	-6.413043478260869	3.6956521739130435	3953.113553113553	128.0	128.0	-6.370431348136824	14.127689496003331	7.757258147866506	492.5804832673649	583.9112030161862	-2.3206106870229006	8.030534351145038	1.0381679389312977	0.18440779610194902	0.8350824587706147	0.9340329835082458	
1.7104002349368467E12	1.9239130434782608	-6.380434782608695	3.7282608695652173	3956.043956043956	128.0	128.0	-6.370142861621721	14.11175061604388	7.741607754422159	492.5854596597505	583.9114915027012	-2.030534351145038	8.290076335877862	1.3893129770992365	0.17091454272863568	0.8395802098950524	0.9370314842578711	
1.7104002349563787E12	1.9456521739130435	-6.3478260869565215	3.6739130434782608	3934.065934065934	128.0	128.0	-6.382187173627279	14.11982823846677	7.73764106483949	492.6027688506567	583.9039908533085	-2.900763358778626	8.015267175572518	1.1450381679389312	0.16941529235382308	0.8350824587706147	0.952023988005997	
1.7104002349759106E12	1.9456521739130435	-6.33695652173913	3.6739130434782608	3954.5787545787543	128.0	128.0	-6.387019322755257	14.118313684262478	7.731294361507221	492.61560650057874	583.906731475202	-3.4045801526717554	7.404580152671755	1.297709923664122	0.17241379310344826	0.8380809595202399	0.952023988005997	
1.7104002349954426E12	1.9565217391304348	-6.315217391304348	3.684782608695652	3956.043956043956	128.0	128.0	-6.380888984309315	14.112543953960415	7.7316549696511	492.6198616766765	583.9117078675876	-3.450381679389313	7.557251908396946	1.4961832061068703	0.1619190404797601	0.8200899550224887	0.9385307346326837	
1.7104002350149746E12	1.9456521739130435	-6.3478260869565215	3.684782608695652	3934.065934065934	128.0	128.0	-6.371729537454788	14.107495439946108	7.73576590249132	492.58372874065986	583.8906483519851	-3.16030534351145	8.198473282442748	1.6335877862595418	0.15742128935532235	0.8275862068965517	0.952023988005997	
1.7104002350345066E12	1.967391304347826	-6.358695652173913	3.6739130434782608	3956.043956043956	128.0	128.0	-6.386514471353826	14.12667979320047	7.740165321846643	492.5090828548769	583.89389382528	-3.66412213740458	7.755725190839694	1.4045801526717556	0.17841079460269865	0.8290854572713643	0.9505247376311844	
1.7104002350540386E12	1.934782608695652	-6.369565217391304	3.6956521739130435	3956.043956043956	128.0	128.0	-6.3802398896503325	14.142546551531144	7.762306661880811	492.485571203896	583.8882683382354	-3.7709923664122136	8.045801526717558	0.8702290076335878	0.1664167916041979	0.8185907046476761	0.9400299850074962	
1.7104002350735706E12	1.9130434782608696	-6.380434782608695	3.6739130434782608	3954.5787545787543	128.0	128.0	-6.373893186318062	14.181059501297415	7.807166314979353	492.49999552965113	583.8783155534644	-4.137404580152672	7.7251908396946565	0.7938931297709924	0.17091454272863568	0.8215892053973013	0.9430284857571214	
1.7104002350931025E12	1.934782608695652	-6.369565217391304	3.6739130434782608	3954.5787545787543	128.0	128.0	-6.32989899276483	14.193536543075627	7.863637550310797	492.5271853836996	583.8743488638818	-3.847328244274809	7.038167938931298	0.9312977099236641	0.15742128935532235	0.8350824587706147	0.9460269865067465	
1.7104002351126345E12	1.934782608695652	-6.369565217391304	3.684782608695652	3935.531135531135	128.0	128.0	-6.322254100114597	14.181420109441294	7.859166009326698	492.5236514238896	583.8737718908516	-3.3893129770992365	6.702290076335878	0.7480916030534351	0.17841079460269865	0.8320839580209894	0.9550224887556221	
1.7104002351321665E12	1.934782608695652	-6.3478260869565215	3.6739130434782608	3931.135531135531	128.0	128.0	-6.381393835710745	14.131439820699672	7.750045984988927	492.4992743133634	583.8927398792196	-3.6030534351145036	7.32824427480916	0.7480916030534351	0.1664167916041979	0.8395802098950524	0.9430284857571214	
1.7104002351516985E12	1.9456521739130435	-6.358695652173913	3.684782608695652	3954.5787545787543	128.0	128.0	-6.375840470295009	14.096100222599535	7.720259752304525	492.56555409020837	583.883941040509	-3.3893129770992365	7.648854961832061	0.9923664122137404	0.1619190404797601	0.841079460269865	0.9340329835082458	
1.7104002351712305E12	1.9565217391304348	-6.3478260869565215	3.6739130434782608	3931.135531135531	128.0	128.0	-6.3806004977942115	14.082685599647238	7.702085101853026	492.5634625629738	583.8803349590701	-3.618320610687023	7.770992366412213	0.916030534351145	0.17241379310344826	0.8230884557721139	0.9385307346326837	
1.7104002351907625E12	1.9456521739130435	-6.380434782608695	3.6956521739130435	3956.043956043956	128.0	128.0	-6.378364727302162	14.078502545178242	7.7001378178760795	492.568871685132	583.9023320558467	-4.061068702290076	7.893129770992366	0.38167938931297707	0.17391304347826086	0.8185907046476761	0.9475262368815592	
1.7104002352102942E12	1.934782608695652	-6.380434782608695	3.6630434782608696	3953.113553113553	128.0	128.0	-6.337327520528737	14.057082421431831	7.719754900903094	492.5516346158546	584.0051053768523	-4.67175572519084	7.603053435114504	0.16793893129770993	0.1649175412293853	0.8230884557721139	0.9415292353823088	
1.7104002352298262E12	1.9239130434782608	-6.369565217391304	3.652173913043478	3954.5787545787543	128.0	128.0	-5.848991972087857	14.882442341141982	9.033450369054124	492.57327110448733	583.4634719447461	-3.6030534351145036	7.587786259541985	0.07633587786259542	0.1634182908545727	0.8245877061469266	0.9505247376311844	
1.7104002352493582E12	1.9782608695652173	-6.380434782608695	3.6739130434782608	3953.113553113553	128.0	128.0	-6.166543503587664	14.334894935476179	8.168351431888514	492.5600007247926	583.5695628606752	-3.541984732824427	7.206106870229007	0.2595419847328244	0.15742128935532235	0.8275862068965517	0.9340329835082458	
1.7104002352688901E12	1.934782608695652	-6.315217391304348	3.619565217391304	3954.5787545787543	128.0	128.0	-6.321100154054184	14.10800029134754	7.7869001372933555	492.567285009299	583.9054332858841	-3.465648854961832	7.129770992366412	-0.5190839694656488	0.17091454272863568	0.8185907046476761	0.9430284857571214	
1.710400235288422E12	1.8695652173913042	-6.391304347826087	3.717391304347826	3954.5787545787543	128.0	128.0	-6.329682627878503	14.130574361154363	7.800891733275859	492.56764561744285	583.9434413842489	-6.366412213740458	8.030534351145038	0.15267175572519084	0.16941529235382308	0.8305847076461769	0.9385307346326837	
1.710400235307954E12	1.9239130434782608	-6.358695652173913	3.608695652173913	3954.5787545787543	128.0	128.0	-6.330980817196467	14.145647781568503	7.8146669643720355	492.55127400771073	583.9769779416297	-1.450381679389313	7.877862595419847	0.3511450381679389	0.15892053973013492	0.8290854572713643	0.9475262368815592	
1.710400235327486E12	1.967391304347826	-6.304347826086956	3.619565217391304	3931.135531135531	128.0	128.0	-6.322614708258476	14.144854443651969	7.822239735393493	492.54334062854537	583.9875076994309	-3.679389312977099	7.740458015267175	0.33587786259541985	0.1619190404797601	0.8305847076461769	0.9415292353823088	
1.710400235347018E12	1.9565217391304348	-6.3478260869565215	3.543478260869565	3956.043956043956	128.0	128.0	-6.2973000165581725	14.15495147168058	7.857651455122406	492.5700977528212	583.9993356465502	-4.122137404580153	8.15267175572519	0.3053435114503817	0.17991004497751123	0.8230884557721139	0.9490254872563718	
1.71040023536655E12	1.891304347826087	-6.4021739130434785	3.6630434782608696	3954.5787545787543	128.0	128.0	-6.27970233913688	14.162524242702037	7.882821903565158	492.561803765512	584.0214048649556	-6.793893129770992	8.13740458015267	0.1984732824427481	0.17691154422788605	0.8230884557721139	0.9385307346326837	
1.710400235386082E12	1.9239130434782608	-6.489130434782608	3.6630434782608696	3954.5787545787543	128.0	128.0	-6.259868891223538	14.199017786862587	7.93914889563905	492.53836423615985	584.059196598434	-6.122137404580153	5.526717557251908	0.12213740458015267	0.17091454272863568	0.8290854572713643	0.9430284857571214	
1.710400235405614E12	1.9239130434782608	-6.445652173913043	3.652173913043478	3954.5787545787543	128.0	128.0	-6.205994034528022	14.205580855081184	7.999586820553163	492.55668312986893	584.1194181584618	-4.030534351145038	5.969465648854961	0.2595419847328244	0.17391304347826086	0.8290854572713643	0.9475262368815592	
1.710400235425146E12	1.9891304347826086	-6.4021739130434785	3.5760869565217392	3938.461538461538	128.0	128.0	-6.162360449118668	14.232482222614554	8.070121773495886	492.55668312986893	584.1584359596296	-3.4351145038167936	6.030534351145038	0.1984732824427481	0.17091454272863568	0.8320839580209894	0.9400299850074962	
1.710400235444678E12	1.9565217391304348	-6.358695652173913	3.5869565217391304	3954.5787545787543	128.0	128.0	-6.093772780152891	14.28534737650721	8.191574596354318	492.5403115201368	584.2047380453037	-3.3893129770992365	5.908396946564885	0.564885496183206	0.16941529235382308	0.8305847076461769	0.9415292353823088	
1.71040023546421E12	1.9456521739130435	-6.358695652173913	3.5978260869565215	3954.5787545787543	128.0	128.0	-6.058288938795202	14.27914491643249	8.220855977637289	492.54377335831805	584.1852652055342	-3.8167938931297707	5.099236641221374	0.6106870229007634	0.17691154422788605	0.8230884557721139	0.9460269865067465	
1.710400235483742E12	1.9565217391304348	-6.3478260869565215	3.641304347826087	3932.6007326007325	128.0	128.0	-6.079636940912836	14.299338972489712	8.219702031576876	492.56879956350326	584.1082393060017	-3.5572519083969465	5.190839694656488	0.6717557251908397	0.17241379310344826	0.8200899550224887	0.9340329835082458	
1.710400235503274E12	1.9456521739130435	-6.369565217391304	3.641304347826087	3929.6703296703295	128.0	128.0	-6.2222214010025745	14.232842830758432	8.010621429755858	492.58185357831167	583.986858604772	-3.145038167938931	5.022900763358779	1.0229007633587786	0.17841079460269865	0.8320839580209894	0.9430284857571214	
1.710400235522806E12	1.9891304347826086	-6.369565217391304	3.641304347826087	3956.043956043956	128.0	128.0	-6.293116962089177	14.184881947622532	7.891764985533356	492.59021968724966	583.929594031524	-3.679389312977099	5.404580152671755	0.4580152671755725	0.1664167916041979	0.8245877061469266	0.9580209895052474	
1.710400235542338E12	1.9891304347826086	-6.4021739130434785	3.652173913043478	3953.113553113553	128.0	128.0	-6.3627864554865905	14.151778120014445	7.788991664527853	492.570818969109	583.9006011367561	-3.297709923664122	5.129770992366412	0.8702290076335878	0.17241379310344826	0.815592203898051	0.9415292353823088	
1.7104002355618696E12	2.0	-6.391304347826087	3.6304347826086953	3932.6007326007325	128.0	128.0	-6.350309413708379	14.123722806420663	7.773413392712283	492.5448551827497	583.8904319870987	-3.0839694656488548	5.2824427480916025	0.8702290076335878	0.1619190404797601	0.8230884557721139	0.9280359820089955	
1.7104002355814016E12	2.0	-6.391304347826087	3.641304347826087	3935.531135531135	128.0	128.0	-6.370864077909479	14.143772619220332	7.772908541310852	492.57586748312326	583.8884847031218	-3.3435114503816794	5.923664122137405	0.6564885496183206	0.1649175412293853	0.8200899550224887	0.9460269865067465	
1.7104002356009336E12	2.010869565217391	-6.4021739130434785	3.5869565217391304	3954.5787545787543	128.0	128.0	-6.367113753213138	14.134468929108255	7.7673551758951165	492.57002563119244	583.891297446644	-2.717557251908397	4.824427480916031	0.8702290076335878	0.17841079460269865	0.8215892053973013	0.9505247376311844	
1.7104002356204656E12	2.043478260869565	-6.369565217391304	3.652173913043478	3956.043956043956	128.0	128.0	-6.366248293667828	14.140238659410318	7.773990365742489	492.5281950865025	583.9049284344827	-2.595419847328244	5.419847328244274	0.7022900763358778	0.17691154422788605	0.8350824587706147	0.9490254872563718	
1.7104002356399976E12	1.9782608695652173	-6.293478260869565	3.619565217391304	3929.6703296703295	128.0	128.0	-6.355069441207581	14.141681091985834	7.786611650778252	492.53338784377434	583.8965623255447	-2.687022900763359	7.648854961832061	0.38167938931297707	0.17691154422788605	0.8230884557721139	0.9385307346326837	
1.7104002356595295E12	1.9456521739130435	-6.358695652173913	3.5869565217391304	3928.205128205128	128.0	128.0	-6.344539683406316	14.129276171836398	7.784736488430082	492.5205501938522	583.896778690431	-4.1679389312977095	6.3206106870229	1.0076335877862594	0.17241379310344826	0.8305847076461769	0.9460269865067465	
1.7104002356790615E12	1.9782608695652173	-6.33695652173913	3.684782608695652	3954.5787545787543	128.0	128.0	-6.353338522116962	14.150047200923826	7.796708678806863	492.5336042086607	583.9045678263387	-3.3587786259541983	6.519083969465648	0.3511450381679389	0.16941529235382308	0.8125937031484257	0.9385307346326837	
1.7104002356985935E12	1.9891304347826086	-6.391304347826087	3.652173913043478	3953.113553113553	128.0	128.0	-6.344106953633661	14.144133227364211	7.800026273730549	492.5535097782028	583.9152418273976	-3.877862595419847	6.702290076335878	0.6870229007633587	0.17841079460269865	0.8215892053973013	0.9250374812593702	
1.7104002357181255E12	1.9782608695652173	-6.4021739130434785	3.641304347826087	3954.5787545787543	128.0	128.0	-6.34360210223223	14.142907159675023	7.799305057442791	492.5612989141106	583.8974999067187	-2.6412213740458013	8.030534351145038	0.3511450381679389	0.17841079460269865	0.8185907046476761	0.9505247376311844	
1.7104002357376575E12	1.967391304347826	-6.413043478260869	3.6304347826086953	3942.8571428571427	128.0	128.0	-6.343962710376109	14.135622875168668	7.791660164792558	492.5671407660414	583.8907925952426	-2.381679389312977	7.801526717557252	0.7786259541984732	0.15742128935532235	0.815592203898051	0.9340329835082458	
1.7104002357571895E12	1.9565217391304348	-6.4021739130434785	3.6304347826086953	3956.043956043956	128.0	128.0	-6.346703332269589	14.125886455283936	7.779183123014346	492.5791129564182	583.9079575428913	-2.3053435114503817	8.106870229007633	0.8396946564885496	0.1649175412293853	0.8230884557721139	0.952023988005997	
1.7104002357767214E12	1.967391304347826	-6.358695652173913	3.6630434782608696	3954.5787545787543	128.0	128.0	-6.359252495676577	14.138363497062148	7.77911100138557	492.5705304825939	583.89742778509	-2.748091603053435	7.770992366412213	1.1450381679389312	0.1634182908545727	0.8245877061469266	0.9370314842578711	
1.7104002357962534E12	1.9891304347826086	-6.358695652173913	3.608695652173913	3931.135531135531	128.0	128.0	-6.350886386738585	14.123217955019232	7.772331568280646	492.6094761621328	583.9005290151273	-3.2671755725190836	6.931297709923664	0.7175572519083969	0.17391304347826086	0.8395802098950524	0.9505247376311844	
1.7104002358157854E12	1.9891304347826086	-6.358695652173913	3.641304347826087	3956.043956043956	128.0	128.0	-6.3596852254492315	14.131367699070896	7.771682473621664	492.60608644558033	583.8978605148626	-3.3587786259541983	7.587786259541985	0.48854961832061067	0.1664167916041979	0.8215892053973013	0.9505247376311844	
1.7104002358353174E12	2.010869565217391	-6.380434782608695	3.641304347826087	3956.043956043956	128.0	128.0	-6.359252495676577	14.128410712291089	7.769158216614511	492.61589498709384	583.896778690431	-3.236641221374046	7.526717557251908	0.2595419847328244	0.17241379310344826	0.8305847076461769	0.9340329835082458	
1.7104002358548494E12	1.9891304347826086	-6.380434782608695	3.608695652173913	3954.5787545787543	128.0	128.0	-6.370287104879273	14.128699198806192	7.7584120939269186	492.6162555952377	583.8998799204684	-2.9923664122137406	7.648854961832061	0.41221374045801523	0.17091454272863568	0.8245877061469266	0.9430284857571214	
1.7104002358743813E12	1.9782608695652173	-6.380434782608695	3.6304347826086953	3956.043956043956	128.0	128.0	-6.3749750107497	14.136416213085202	7.761441202335502	492.606519175353	583.8946150415677	-3.5877862595419847	8.229007633587786	0.24427480916030533	0.18440779610194902	0.8125937031484257	0.9415292353823088	
1.710400235893913E12	1.9456521739130435	-6.369565217391304	3.6304347826086953	3956.043956043956	128.0	128.0	-6.365959807152725	14.18062677152476	7.8146669643720355	492.57507414520677	583.9048563128539	-3.5725190839694654	7.862595419847328	-0.24427480916030533	0.17691154422788605	0.815592203898051	0.9340329835082458	
1.710400235913445E12	1.9456521739130435	-6.369565217391304	3.608695652173913	3954.5787545787543	128.0	128.0	-6.358531279388819	14.20341720621791	7.844885926829091	492.55538494055094	583.9029090288769	-3.4351145038167936	7.419847328244274	-0.030534351145038167	0.1634182908545727	0.8185907046476761	0.9550224887556221	
1.710400235932977E12	1.934782608695652	-6.380434782608695	3.608695652173913	3954.5787545787543	128.0	128.0	-6.318648018675807	14.226496127426163	7.907848108750357	492.5734874693737	583.8781713102069	-3.847328244274809	7.3893129770992365	0.183206106870229	0.1649175412293853	0.8305847076461769	0.9460269865067465	
1.710400235952509E12	1.934782608695652	-6.380434782608695	3.6304347826086953	3931.135531135531	128.0	128.0	-6.32802383041666	14.201325678983412	7.873301848566753	492.55473584589197	583.8904319870987	-3.068702290076336	6.564885496183206	0.6870229007633587	0.1649175412293853	0.8350824587706147	0.9490254872563718	
1.710400235972041E12	1.9239130434782608	-6.3478260869565215	3.5869565217391304	3956.043956043956	128.0	128.0	-6.367113753213138	14.16317333736102	7.796059584147881	492.5794735645621	583.8905041087276	-3.1755725190839694	6.3206106870229	0.41221374045801523	0.1649175412293853	0.8350824587706147	0.9415292353823088	
1.710400235991573E12	1.9239130434782608	-6.358695652173913	3.619565217391304	3954.5787545787543	128.0	128.0	-6.3727392402576495	14.13764228077439	7.76490304051674	492.5739923207751	583.8947592848252	-3.480916030534351	5.847328244274809	0.6259541984732824	0.17241379310344826	0.8305847076461769	0.9415292353823088	
1.710400236011105E12	1.934782608695652	-6.391304347826087	3.6304347826086953	3953.113553113553	128.0	128.0	-6.374253794461941	14.127977982518434	7.753724188056492	492.5902918088784	583.8962017174008	-3.282442748091603	5.572519083969466	1.2671755725190839	0.15592203898050974	0.8185907046476761	0.9370314842578711	
1.710400236030637E12	1.9565217391304348	-6.380434782608695	3.6739130434782608	3931.135531135531	128.0	128.0	-6.370070739992945	14.101725709644045	7.7316549696511	492.60327370205806	583.924112787737	-3.847328244274809	6.076335877862595	0.9618320610687022	0.1829085457271364	0.8365817091454273	0.9475262368815592	
1.710400236050169E12	1.9782608695652173	-6.467391304347826	3.641304347826087	3947.252747252747	128.0	128.0	-6.25092580925534	14.18747832625846	7.936552517003122	492.59122939005255	584.0180872700319	-3.2519083969465647	4.900763358778626	1.1755725190839694	0.1634182908545727	0.8185907046476761	0.9475262368815592	
1.710400236069701E12	2.032608695652174	-6.413043478260869	3.652173913043478	3953.113553113553	128.0	128.0	-5.853751999587059	14.717932905904402	8.864180906317342	492.5705304825939	583.5225395587134	-1.2671755725190839	4.351145038167939	0.916030534351145	0.1649175412293853	0.841079460269865	0.9415292353823088	
1.710400236089233E12	2.032608695652174	-6.4021739130434785	3.5869565217391304	3954.5787545787543	128.0	128.0	-6.283380542204445	14.1111015213849	7.827720979180453	492.5612989141106	583.647165733238	-1.9541984732824427	4.244274809160305	1.3129770992366412	0.18440779610194902	0.8275862068965517	0.9490254872563718	
1.710400236108765E12	1.9782608695652173	-6.293478260869565	3.641304347826087	3931.135531135531	128.0	128.0	-6.34035662893732	14.139156834978682	7.798800206041361	492.55726010289914	583.8871865138038	-2.687022900763359	5.251908396946565	0.916030534351145	0.15742128935532235	0.8230884557721139	0.9310344827586207	
1.7104002361282969E12	1.9782608695652173	-6.4021739130434785	3.6304347826086953	3956.043956043956	128.0	128.0	-6.325138965265628	14.183006785274362	7.8578678200087335	492.5615152789969	583.9561347909134	-4.9465648854961835	5.938931297709924	1.0229007633587786	0.17241379310344826	0.8275862068965517	0.9460269865067465	
1.7104002361478289E12	1.967391304347826	-6.3478260869565215	3.641304347826087	3956.043956043956	128.0	128.0	-6.3147534507219145	14.193031691674197	7.878278240952283	492.57420868566146	583.9647172647378	-0.7633587786259541	5.877862595419847	1.0381679389312977	0.1649175412293853	0.8200899550224887	0.9460269865067465	
1.7104002361673608E12	2.0	-6.358695652173913	3.652173913043478	3954.5787545787543	128.0	128.0	-6.298093354474706	14.196349286597883	7.898255932123177	492.5581976840732	583.9906810510971	-2.1374045801526718	6.625954198473282	1.3587786259541985	0.1619190404797601	0.815592203898051	0.9490254872563718	
1.7104002361868928E12	2.0543478260869565	-6.380434782608695	3.5217391304347827	3954.5787545787543	128.0	128.0	-6.284822974779961	14.20889845000487	7.924075475224909	492.5523558321424	583.9954410785963	-1.3893129770992365	5.190839694656488	1.099236641221374	0.1664167916041979	0.8215892053973013	0.9250374812593702	
1.7104002362064248E12	1.9782608695652173	-6.434782608695652	3.6630434782608696	3948.7179487179483	128.0	128.0	-6.253450066262492	14.231833127955571	7.97838306169308	492.5791129564182	584.0416710426416	-5.099236641221374	6.1679389312977095	0.2900763358778626	0.17091454272863568	0.8290854572713643	0.9610194902548725	
1.7104002362259568E12	2.032608695652174	-6.478260869565217	3.6956521739130435	3954.5787545787543	128.0	128.0	-6.21955290073787	14.233347682159863	8.013794781421993	492.5235793022608	584.0620093419564	-4.290076335877862	5.175572519083969	0.21374045801526717	0.18440779610194902	0.8275862068965517	0.9415292353823088	
1.7104002362454885E12	2.0543478260869565	-6.423913043478261	3.6304347826086953	3954.5787545787543	128.0	128.0	-6.185727856842024	14.259383590147923	8.0736557333059	492.53663331706923	584.1054265624794	-2.6259541984732824	6.65648854961832	0.2595419847328244	0.1664167916041979	0.8245877061469266	0.9325337331334332	
1.7104002362650205E12	2.0217391304347827	-6.391304347826087	3.5760869565217392	3932.6007326007325	128.0	128.0	-6.116491093217265	14.292054687983358	8.175563594766093	492.5481006560446	584.1831015566709	-2.595419847328244	7.648854961832061	0.5343511450381679	0.15742128935532235	0.8125937031484257	0.9490254872563718	
1.7104002362845525E12	1.934782608695652	-6.33695652173913	3.6304347826086953	3956.043956043956	128.0	128.0	-6.055981046674376	14.311960257525474	8.255979210851098	492.5788244699031	584.2088489781438	-2.4732824427480917	7.786259541984733	0.6870229007633587	0.17691154422788605	0.8275862068965517	0.9415292353823088	
1.7104002363040845E12	1.9130434782608696	-6.293478260869565	3.608695652173913	3956.043956043956	128.0	128.0	-6.023814800240374	14.36295024906996	8.339135448829586	492.5358399791527	584.1773318263688	-1.7099236641221374	5.557251908396946	0.4427480916030534	0.17391304347826086	0.8320839580209894	0.9475262368815592	
1.7104002363236165E12	1.967391304347826	-6.304347826086956	3.684782608695652	3954.5787545787543	128.0	128.0	-6.05489922224274	14.364825411418131	8.30992618917539	492.5388690875613	584.0851603847933	-2.4885496183206106	5.633587786259541	0.5190839694656488	0.1619190404797601	0.8200899550224887	0.9340329835082458	
1.7104002363431484E12	2.010869565217391	-6.391304347826087	3.619565217391304	3956.043956043956	128.0	128.0	-6.212124372973964	14.291189228438048	8.079064855464084	492.54305214203026	583.971424576214	-3.0229007633587783	6.106870229007633	0.5190839694656488	0.17391304347826086	0.8245877061469266	0.9550224887556221	
1.7104002363626804E12	2.0	-6.434782608695652	3.641304347826087	3956.043956043956	128.0	128.0	-6.288501177847526	14.25274840030055	7.964247222453025	492.5689438067608	583.9092557322092	-2.687022900763359	7.2824427480916025	0.7786259541984732	0.17991004497751123	0.8305847076461769	0.9310344827586207	
1.7104002363822124E12	1.9782608695652173	-6.434782608695652	3.652173913043478	3954.5787545787543	128.0	128.0	-6.335812966324445	14.233203438902311	7.897390472577867	492.5548800891495	583.8969229336885	-2.8854961832061066	7.358778625954198	0.8549618320610687	0.17241379310344826	0.815592203898051	0.9280359820089955	
1.7104002364017444E12	1.9891304347826086	-6.4021739130434785	3.641304347826087	3956.043956043956	128.0	128.0	-6.345405142951625	14.229885843978625	7.884480701027001	492.5644722657767	583.9029090288769	-2.0763358778625953	6.213740458015267	0.6412213740458015	0.16941529235382308	0.8350824587706147	0.9385307346326837	
1.7104002364212764E12	1.967391304347826	-6.391304347826087	3.717391304347826	3929.6703296703295	128.0	128.0	-6.34223179128549	14.219644572692463	7.877412781406973	492.5755068749794	583.8888453112656	-1.648854961832061	6.076335877862595	1.0076335877862594	0.16941529235382308	0.8380809595202399	0.952023988005997	
1.7104002364408083E12	2.0217391304347827	-6.380434782608695	3.6956521739130435	3956.043956043956	128.0	128.0	-6.333000222802189	14.216543342655104	7.883543119852916	492.5951239580064	583.8969950553173	-2.1068702290076335	4.9465648854961835	0.5190839694656488	0.17691154422788605	0.8305847076461769	0.9280359820089955	
1.7104002364603403E12	2.043478260869565	-6.3478260869565215	3.641304347826087	3954.5787545787543	128.0	128.0	-6.336317817725876	14.214091207276727	7.877773389550852	492.59122939005255	583.8917301764167	-1.0381679389312977	5.465648854961832	0.6106870229007634	0.1664167916041979	0.8245877061469266	0.9475262368815592	
1.7104002364798723E12	1.967391304347826	-6.25	3.652173913043478	3954.5787545787543	128.0	128.0	-6.338048736816495	14.238468317802944	7.90041958098645	492.57557899660816	583.9019714477029	-2.1068702290076335	7.8473282442748085	0.7175572519083969	0.1874062968515742	0.8275862068965517	0.9205397301349325	
1.7104002364994043E12	2.0	-6.3478260869565215	3.619565217391304	3954.5787545787543	128.0	128.0	-6.338914196361804	14.232770709129657	7.8938565127678535	492.6019755127401	583.8964180822871	-4.67175572519084	6.641221374045801	0.8549618320610687	0.17091454272863568	0.8290854572713643	0.9475262368815592	
1.7104002365189363E12	1.9782608695652173	-6.369565217391304	3.760869565217391	3948.7179487179483	128.0	128.0	-6.342736642686921	14.245031386021541	7.902294743334621	492.58156509179656	583.8933889738786	-4.549618320610687	7.893129770992366	0.9465648854961831	0.1634182908545727	0.8245877061469266	0.9325337331334332	
1.7104002365384683E12	2.0217391304347827	-6.413043478260869	3.684782608695652	3953.113553113553	128.0	128.0	-6.349516075791845	14.252099305641568	7.902583229849724	492.56108254922424	583.8931726089922	-3.4198473282442747	7.190839694656488	0.6259541984732824	0.1649175412293853	0.8200899550224887	0.9415292353823088	
1.7104002365580002E12	1.9782608695652173	-6.369565217391304	3.6956521739130435	3954.5787545787543	128.0	128.0	-6.348217886473881	14.253036886815654	7.9048190003417735	492.5692322932759	583.8895665275534	-1.3740458015267174	8.030534351145038	0.6106870229007634	0.1634182908545727	0.8185907046476761	0.9220389805097451	
1.7104002365775322E12	1.9456521739130435	-6.380434782608695	3.619565217391304	3929.6703296703295	128.0	128.0	-6.353915495147168	14.263927252760798	7.91001175761363	492.5945469849762	583.8838689188801	-2.1221374045801524	7.709923664122137	0.7175572519083969	0.17241379310344826	0.8275862068965517	0.9385307346326837	
1.710400236597064E12	1.9782608695652173	-6.358695652173913	3.5869565217391304	3956.043956043956	128.0	128.0	-6.348794859504087	14.23031857375128	7.8815237142471934	492.6432290843999	583.8756470531997	-1.0381679389312977	6.809160305343511	0.8091603053435115	0.1664167916041979	0.8245877061469266	0.9430284857571214	
1.710400236616596E12	1.9565217391304348	-6.33695652173913	3.684782608695652	3954.5787545787543	128.0	128.0	-6.364084644804555	14.246618061854608	7.8825334170500545	492.5898590791058	583.8736997692228	-1.3435114503816794	7.145038167938931	0.7022900763358778	0.1649175412293853	0.8275862068965517	0.9280359820089955	
1.710400236636128E12	1.9456521739130435	-6.4021739130434785	3.652173913043478	3954.5787545787543	128.0	128.0	-6.37187378071234	14.255344778936479	7.88347099822414	492.5823584297131	583.8757191748284	-2.7938931297709924	7.145038167938931	1.2366412213740459	0.1664167916041979	0.8140929535232384	0.9325337331334332	
1.71040023665566E12	1.934782608695652	-6.369565217391304	3.6304347826086953	3956.043956043956	128.0	128.0	-6.369205280447636	14.260609657837112	7.891404377389477	492.5689438067608	583.874925836912	-2.1221374045801524	6.3206106870229	1.1450381679389312	0.17841079460269865	0.8245877061469266	0.9370314842578711	
1.710400236675192E12	1.9130434782608696	-6.33695652173913	3.619565217391304	3948.7179487179483	128.0	128.0	-6.375840470295009	14.249575048634417	7.873734578339408	492.5650492388069	583.8687954984659	-3.0076335877862594	6.3206106870229	1.2519083969465647	0.16941529235382308	0.841079460269865	0.9460269865067465	
1.7104002366947239E12	1.934782608695652	-6.33695652173913	3.619565217391304	3953.113553113553	128.0	128.0	-6.378581092188489	14.27864006503106	7.900058972842571	492.5873348220986	583.8314364947602	-3.297709923664122	5.587786259541985	1.3740458015267174	0.17241379310344826	0.8230884557721139	0.9385307346326837	
1.7104002367142559E12	2.0217391304347827	-6.33695652173913	3.6304347826086953	3954.5787545787543	128.0	128.0	-6.343025129202024	14.318162717600194	7.975137588398169	492.57925719967574	583.8118915333619	-3.297709923664122	5.374045801526718	1.4198473282442747	0.17241379310344826	0.815592203898051	0.9385307346326837	
1.7104002367337878E12	2.0217391304347827	-6.3478260869565215	3.619565217391304	3931.135531135531	128.0	128.0	-6.322614708258476	14.352132004753592	8.029517296495117	492.5823584297131	583.7960247750312	-4.412213740458015	5.572519083969466	1.297709923664122	0.17241379310344826	0.8350824587706147	0.9235382308845577	
1.7104002367533198E12	2.0217391304347827	-6.358695652173913	3.6739130434782608	3956.043956043956	128.0	128.0	-6.365671320637622	14.298545634573179	7.932874313935557	492.5935372821734	583.8186709664668	-4.045801526717557	5.129770992366412	1.3587786259541985	0.1934032983508246	0.8215892053973013	0.9550224887556221	
1.7104002367728518E12	2.0217391304347827	-6.358695652173913	3.6304347826086953	3956.043956043956	128.0	128.0	-6.381754443854624	14.248276859316451	7.866522415461828	492.5757953614945	583.8020108702196	-4.061068702290076	6.198473282442748	1.282442748091603	0.17991004497751123	0.8200899550224887	0.9385307346326837	
1.7104002367923838E12	2.0217391304347827	-6.358695652173913	3.619565217391304	3954.5787545787543	128.0	128.0	-6.379951403135229	14.226496127426163	7.8465447242909345	492.62418897440307	583.8341771166536	-3.145038167938931	6.229007633587786	1.0534351145038168	0.17241379310344826	0.8380809595202399	0.9385307346326837	
1.7104002368119158E12	1.9891304347826086	-6.3478260869565215	3.5978260869565215	3954.5787545787543	128.0	128.0	-6.393149661201199	14.219211842919808	7.82606218171861	492.62390048788797	583.8335280219947	-3.3435114503816794	6.3206106870229	0.9465648854961831	0.17391304347826086	0.8215892053973013	0.9325337331334332	
1.7104002368314478E12	1.934782608695652	-6.380434782608695	3.652173913043478	3950.18315018315	128.0	128.0	-6.3943036072616115	14.188415907432546	7.7941123001709345	492.63681025943885	583.8574002811195	-3.969465648854962	6.442748091603053	0.9312977099236641	0.17691154422788605	0.8305847076461769	0.9385307346326837	
1.7104002368509797E12	1.934782608695652	-6.369565217391304	3.684782608695652	3954.5787545787543	128.0	128.0	-6.101922524204555	14.475459989960193	8.373537465755637	492.5716844286543	583.8474474963483	-3.969465648854962	5.984732824427481	1.0229007633587786	0.18440779610194902	0.815592203898051	0.9340329835082458	
1.7104002368705117E12	1.9456521739130435	-6.33695652173913	3.6739130434782608	3954.5787545787543	128.0	128.0	-5.9263784797642804	15.101908457506713	9.175529977742432	492.56577045509465	583.424237778692	-3.4198473282442747	5.740458015267175	1.3282442748091603	0.1664167916041979	0.8185907046476761	0.9370314842578711	
1.7104002368900437E12	1.967391304347826	-6.33695652173913	3.6304347826086953	3931.135531135531	128.0	128.0	-6.386370228096275	14.143339889447677	7.756969661351403	492.590436052136	583.7217394973922	-2.595419847328244	5.099236641221374	1.6335877862595418	0.17091454272863568	0.8290854572713643	0.9400299850074962	
1.7104002369095757E12	1.9565217391304348	-6.282608695652174	3.6304347826086953	3956.043956043956	128.0	128.0	-6.328745046704418	14.244165926476231	7.915420879771815	492.5794014429333	583.8596360516115	-3.4198473282442747	5.145038167938931	1.297709923664122	0.1664167916041979	0.8245877061469266	0.9325337331334332	
1.7104002369291074E12	1.967391304347826	-6.3478260869565215	3.652173913043478	3953.113553113553	128.0	128.0	-6.327086249242575	14.238179831287841	7.911093582045267	492.58127660528146	583.8966344471735	-5.648854961832061	6.793893129770992	1.4045801526717556	0.17241379310344826	0.815592203898051	0.952023988005997	
1.7104002369486394E12	2.043478260869565	-6.271739130434782	3.619565217391304	3953.113553113553	128.0	128.0	-6.325932303182162	14.252532035414223	7.926599732232062	492.598153066415	583.9033417586496	-2.015267175572519	6.931297709923664	1.1755725190839694	0.1829085457271364	0.8140929535232384	0.9370314842578711	
1.7104002369681714E12	2.0869565217391304	-6.33695652173913	3.6304347826086953	3954.5787545787543	128.0	128.0	-6.3027812603451325	14.263422401359367	7.960641141014236	492.57557899660816	583.9169727464882	-4.564885496183206	6.99236641221374	1.4961832061068703	0.17391304347826086	0.8245877061469266	0.9400299850074962	
1.7104002369877034E12	2.043478260869565	-6.423913043478261	3.619565217391304	3951.6483516483513	128.0	128.0	-6.296506678641639	14.276692781054113	7.980186102412475	492.57658869941105	583.9407007623555	-5.236641221374046	7.83206106870229	1.0381679389312977	0.17691154422788605	0.8305847076461769	0.9385307346326837	
1.7104002370072354E12	2.032608695652174	-6.445652173913043	3.6304347826086953	3953.113553113553	128.0	128.0	-6.267153175729892	14.280731592265557	8.013578416535665	492.59180636308275	583.9619045212155	-5.190839694656488	7.755725190839694	0.564885496183206	0.17841079460269865	0.8320839580209894	0.9475262368815592	
1.7104002370267673E12	2.010869565217391	-6.445652173913043	3.6630434782608696	3953.113553113553	128.0	128.0	-6.2304432666830145	14.295877134308475	8.06543386762546	492.59238333611296	584.0188806079484	-3.6488549618320607	7.557251908396946	0.3969465648854962	0.17991004497751123	0.8230884557721139	0.9415292353823088	
1.7104002370462993E12	2.0	-6.4021739130434785	3.619565217391304	3931.135531135531	128.0	128.0	-6.187819384076522	14.308209932829133	8.120390548752612	492.5648328739206	584.0581147740024	-3.16030534351145	7.98473282442748	-0.10687022900763359	0.191904047976012	0.8380809595202399	0.9310344827586207	
1.7104002370658313E12	2.0	-6.358695652173913	3.5760869565217392	3956.043956043956	128.0	128.0	-6.0984606860233175	14.322562136955517	8.2241014509322	492.5861808760382	584.1230242399007	-2.6564885496183206	7.816793893129771	-0.015267175572519083	0.1874062968515742	0.815592203898051	0.9415292353823088	
1.7104002370853633E12	1.967391304347826	-6.304347826086956	3.6630434782608696	3954.5787545787543	128.0	128.0	-6.042854910237183	14.344487112103359	8.301632201866175	492.5703862393363	584.1359340114516	-2.9770992366412212	8.15267175572519	-0.015267175572519083	0.17241379310344826	0.8350824587706147	0.952023988005997	
1.7104002371048953E12	1.9130434782608696	-6.358695652173913	3.641304347826087	3954.5787545787543	128.0	128.0	-6.032902125466124	14.370811506606522	8.337909381140397	492.5762280912672	584.066625126198	-3.5114503816793894	8.183206106870228	0.13740458015267176	0.1619190404797601	0.8050974512743628	0.9340329835082458	
1.7104002371244272E12	1.9565217391304348	-6.380434782608695	3.641304347826087	3956.043956043956	128.0	128.0	-6.129040256624253	14.35970477577505	8.230664519150796	492.5954124445215	583.9682512245478	-3.0076335877862594	8.198473282442748	0.42748091603053434	0.17091454272863568	0.8245877061469266	0.9400299850074962	
1.7104002371439592E12	1.9456521739130435	-6.380434782608695	3.6304347826086953	3953.113553113553	128.0	128.0	-6.233328131834046	14.31001297354853	8.076684841714483	492.5969269987258	583.901899326074	-2.6564885496183206	8.885496183206106	0.5343511450381679	0.17091454272863568	0.8140929535232384	0.9430284857571214	
1.7104002371634912E12	1.967391304347826	-6.413043478260869	3.619565217391304	3954.5787545787543	128.0	128.0	-6.325860181553386	14.252315670527896	7.9264554889745105	492.57507414520677	583.8559578485439	-3.2671755725190836	8.458015267175572	0.8091603053435115	0.17091454272863568	0.8290854572713643	0.9550224887556221	
1.7104002371830232E12	1.9456521739130435	-6.413043478260869	3.6630434782608696	3954.5787545787543	128.0	128.0	-6.352112454427774	14.241425304582751	7.889312850154979	492.61820287921466	583.8583378622935	-2.900763358778626	8.595419847328245	1.0229007633587786	0.17391304347826086	0.8320839580209894	0.9400299850074962	
1.7104002372025552E12	1.9565217391304348	-6.413043478260869	3.652173913043478	3931.135531135531	128.0	128.0	-6.350237292079603	14.237891344772738	7.887654052693136	492.6026246073991	583.8514863075598	-2.9770992366412212	7.709923664122137	0.8854961832061068	0.16941529235382308	0.8305847076461769	0.9385307346326837	
1.7104002372220872E12	2.010869565217391	-6.413043478260869	3.6956521739130435	3956.043956043956	128.0	128.0	-6.360334320108214	14.229236749319643	7.86890242921143	492.5814929701678	583.8418220093039	-1.7099236641221374	6.580152671755725	0.8702290076335878	0.17841079460269865	0.8290854572713643	0.9370314842578711	
1.7104002372416191E12	1.967391304347826	-6.391304347826087	3.6630434782608696	3956.043956043956	128.0	128.0	-6.356872481926976	14.222313072957167	7.865440591030191	492.56750137418527	583.8522075238476	-1.129770992366412	8.045801526717558	1.2061068702290076	0.17241379310344826	0.8305847076461769	0.9415292353823088	
1.7104002372611511E12	1.9782608695652173	-6.358695652173913	3.5760869565217392	3953.113553113553	128.0	128.0	-6.358819765903922	14.232626465872105	7.873806699968184	492.5752183884643	583.8445626311973	-0.5038167938931297	5.938931297709924	0.9312977099236641	0.17091454272863568	0.8365817091454273	0.9325337331334332	
1.7104002372806829E12	1.934782608695652	-6.33695652173913	3.6956521739130435	3954.5787545787543	128.0	128.0	-6.3641567664333305	14.24214652087051	7.87798975443718	492.59144575493883	583.8502602398706	-3.0839694656488548	7.587786259541985	0.6564885496183206	0.16941529235382308	0.8275862068965517	0.9460269865067465	
1.7104002373002148E12	1.967391304347826	-6.380434782608695	3.7391304347826084	3954.5787545787543	128.0	128.0	-6.338697831475477	14.220582153866548	7.881884322391072	492.56490499554934	583.8403074550996	-4.442748091603053	6.549618320610687	0.8702290076335878	0.17091454272863568	0.8140929535232384	0.9370314842578711	
1.7104002373197468E12	2.010869565217391	-6.391304347826087	3.7065217391304346	3953.113553113553	128.0	128.0	-6.349299710905518	14.227938560001679	7.878638849096162	492.55415887286176	583.8385044143802	-2.564885496183206	5.801526717557252	0.6870229007633587	0.16941529235382308	0.8305847076461769	0.9490254872563718	
1.7104002373392788E12	1.9891304347826086	-6.4021739130434785	3.7282608695652173	3954.5787545787543	128.0	128.0	-6.351174873253688	14.224981573221871	7.873806699968184	492.569520779791	583.8365571304032	-3.129770992366412	7.083969465648854	0.549618320610687	0.17241379310344826	0.8200899550224887	0.9385307346326837	
1.7104002373588108E12	1.9891304347826086	-6.4021739130434785	3.6956521739130435	3929.6703296703295	128.0	128.0	-6.3442511968912125	14.210413004209162	7.866161807317949	492.57954568619084	583.8249455481703	-2.900763358778626	7.267175572519084	0.48854961832061067	0.18440779610194902	0.8380809595202399	0.952023988005997	
1.7104002373783428E12	1.9782608695652173	-6.391304347826087	3.6956521739130435	3956.043956043956	128.0	128.0	-6.352617305829204	14.207383895800579	7.854766589971375	492.5424030473713	583.8325904408206	-2.259541984732824	7.312977099236641	0.4580152671755725	0.1664167916041979	0.8245877061469266	0.9370314842578711	
1.7104002373978748E12	2.0	-6.369565217391304	3.684782608695652	3954.5787545787543	128.0	128.0	-6.366969509955586	14.21899547803348	7.8520259680778945	492.55415887286176	583.8215558316178	-2.213740458015267	7.404580152671755	0.48854961832061067	0.1664167916041979	0.8245877061469266	0.9505247376311844	
1.7104002374174067E12	1.967391304347826	-6.358695652173913	3.6739130434782608	3953.113553113553	128.0	128.0	-6.360550684994541	14.213442112617745	7.852891427623204	492.55127400771073	583.8108818305591	-3.282442748091603	6.580152671755725	0.5801526717557252	0.16941529235382308	0.8350824587706147	0.9280359820089955	
1.7104002374369387E12	1.934782608695652	-6.369565217391304	3.6630434782608696	3954.5787545787543	128.0	128.0	-6.368123456015999	14.19930627337769	7.831182817361691	492.56266922505733	583.8136224524525	-3.3893129770992365	6.824427480916031	0.2595419847328244	0.15592203898050974	0.8245877061469266	0.9325337331334332	
1.7104002374564707E12	1.9456521739130435	-6.358695652173913	3.6630434782608696	3951.6483516483513	128.0	128.0	-6.35405973840472	14.195339583795022	7.841279845390302	492.5630298332012	583.8202576422999	-2.8091603053435112	6.931297709923664	0.33587786259541985	0.16941529235382308	0.8350824587706147	0.9460269865067465	
1.7104002374760027E12	1.967391304347826	-6.369565217391304	3.6630434782608696	3953.113553113553	128.0	128.0	-6.360550684994541	14.199089908491363	7.838539223496822	492.5870463355835	583.8178055069216	-3.114503816793893	6.580152671755725	0.4580152671755725	0.1664167916041979	0.8290854572713643	0.9505247376311844	
1.7104002374955347E12	1.9782608695652173	-6.369565217391304	3.652173913043478	3954.5787545787543	128.0	128.0	-6.360190076850662	14.207600260686906	7.847410183836244	492.5817814566829	583.8132618443086	-3.2213740458015265	6.977099236641221	0.5801526717557252	0.16941529235382308	0.8305847076461769	0.9415292353823088	
1.7104002375150667E12	1.967391304347826	-6.369565217391304	3.652173913043478	3932.6007326007325	128.0	128.0	-6.356439752154321	14.215822126367346	7.859382374213025	492.5851711732354	583.8209067369588	-3.9083969465648853	6.702290076335878	0.5190839694656488	0.1664167916041979	0.8245877061469266	0.9475262368815592	
1.7104002375345986E12	1.9565217391304348	-6.369565217391304	3.641304347826087	3956.043956043956	128.0	128.0	-6.363940401547003	14.26645150976795	7.902511108220948	492.55257219702867	583.8168679257474	-3.633587786259542	6.671755725190839	0.8396946564885496	0.17841079460269865	0.8245877061469266	0.9475262368815592	
1.7104002375541306E12	1.967391304347826	-6.358695652173913	3.6739130434782608	3954.5787545787543	128.0	128.0	-6.307685531101886	14.284193430446795	7.9765078993449094	492.55415887286176	583.804463005598	-3.4351145038167936	6.442748091603053	0.7633587786259541	0.17391304347826086	0.8320839580209894	0.9325337331334332	
1.7104002375736626E12	1.9891304347826086	-6.358695652173913	3.6630434782608696	3954.5787545787543	128.0	128.0	-6.306315220155146	14.294434701732957	7.988119481577812	492.5570437380128	583.8000635862427	-3.9389312977099236	6.106870229007633	0.7786259541984732	0.1874062968515742	0.8305847076461769	0.9490254872563718	
1.7104002375931946E12	1.9891304347826086	-6.358695652173913	3.641304347826087	3954.5787545787543	128.0	128.0	-6.338048736816495	14.244165926476231	7.906117189659738	492.5966385122107	583.8033090595376	-3.633587786259542	5.816793893129771	1.0229007633587786	0.1619190404797601	0.8305847076461769	0.9310344827586207	
1.7104002376127266E12	1.9782608695652173	-6.391304347826087	3.641304347826087	3954.5787545787543	128.0	128.0	-6.3645173745772095	14.20925905814875	7.84474168357154	492.5781032536153	583.8108097089303	-3.6946564885496183	5.7251908396946565	0.9923664122137404	0.17091454272863568	0.8290854572713643	0.9370314842578711	
1.7104002376322583E12	2.0	-6.4021739130434785	3.6739130434782608	3928.205128205128	128.0	128.0	-6.358891887532698	14.200460219438103	7.841568331905405	492.5787523482743	583.80669877609	-3.847328244274809	5.83206106870229	0.916030534351145	0.17841079460269865	0.8215892053973013	0.9400299850074962	
1.7104002376517903E12	1.9782608695652173	-6.369565217391304	3.6739130434782608	3956.043956043956	128.0	128.0	-6.372522875371322	14.191805623985008	7.819282748613686	492.5734874693737	583.8085739384383	-3.282442748091603	5.603053435114504	1.282442748091603	0.17091454272863568	0.8320839580209894	0.9430284857571214	
1.7104002376713223E12	2.0	-6.380434782608695	3.641304347826087	3931.135531135531	128.0	128.0	-6.350381535337155	14.140094416152767	7.789712880815611	492.58553178137925	583.9101211917546	-4.076335877862595	5.603053435114504	1.297709923664122	0.1619190404797601	0.8350824587706147	0.9310344827586207	
1.7104002376908542E12	2.010869565217391	-6.413043478260869	3.717391304347826	3938.461538461538	128.0	128.0	-5.852742296784198	14.8683786235307	9.015636326746503	492.5915899981964	583.4155831832389	-4.076335877862595	6.381679389312977	1.4809160305343512	0.191904047976012	0.8125937031484257	0.9340329835082458	
1.7104002377103862E12	2.043478260869565	-6.4021739130434785	3.7065217391304346	3954.5787545787543	128.0	128.0	-6.084973941442245	14.594893407212902	8.509919465770658	492.6043555264897	583.4483985243319	-2.8702290076335877	5.938931297709924	1.4198473282442747	0.18590704647676162	0.8245877061469266	0.9325337331334332	
1.7104002377299182E12	2.0543478260869565	-6.380434782608695	3.652173913043478	3953.113553113553	128.0	128.0	-6.3346590202640325	14.118097319376151	7.783438299112118	492.5867578490684	583.7122915640225	-3.480916030534351	4.8396946564885495	1.5267175572519083	0.17841079460269865	0.8395802098950524	0.9370314842578711	
1.7104002377494502E12	1.9782608695652173	-6.413043478260869	3.8152173913043477	3954.5787545787543	128.0	128.0	-6.2849672180375125	14.215966369624898	7.930999151587386	492.595268201264	583.8558136052864	-3.7404580152671754	8.763358778625953	1.2671755725190839	0.17991004497751123	0.8200899550224887	0.9460269865067465	
1.7104002377689822E12	2.0	-6.413043478260869	3.5543478260869565	3953.113553113553	128.0	128.0	-6.2849672180375125	14.217841531973068	7.932874313935557	492.6053652292926	583.8830755809636	-3.5877862595419847	5.7251908396946565	1.66412213740458	0.18590704647676162	0.8290854572713643	0.9580209895052474	
1.7104002377885142E12	1.9891304347826086	-6.304347826086956	3.6739130434782608	3953.113553113553	128.0	128.0	-6.2750144332664535	14.232482222614554	7.957467789348101	492.5702419960788	583.897067176946	-0.5343511450381679	9.862595419847327	1.9541984732824427	0.17091454272863568	0.8110944527736131	0.9475262368815592	
1.7104002378080461E12	2.0217391304347827	-6.3478260869565215	3.5543478260869565	3954.5787545787543	128.0	128.0	-6.270831378797458	14.252387792156672	7.981556413359215	492.56937653653347	583.9140878813372	-3.9083969465648853	7.83206106870229	2.687022900763359	0.17241379310344826	0.8305847076461769	0.9460269865067465	
1.7104002378275781E12	1.967391304347826	-6.380434782608695	3.6956521739130435	3929.6703296703295	128.0	128.0	-6.2431366733475535	14.256787211511995	8.013650538164441	492.5783917401304	583.9293776666376	-3.66412213740458	9.34351145038168	2.183206106870229	0.1664167916041979	0.8290854572713643	0.9250374812593702	
1.71040023784711E12	1.9456521739130435	-6.423913043478261	3.7391304347826084	3956.043956043956	128.0	128.0	-6.22914507736505	14.281597051810868	8.052451974445818	492.59209484959786	583.9449559384532	-4.916030534351145	8.045801526717558	2.2748091603053435	0.16941529235382308	0.8230884557721139	0.9460269865067465	
1.710400237866642E12	1.9239130434782608	-6.413043478260869	3.641304347826087	3954.5787545787543	128.0	128.0	-6.1766405316162745	14.306118405594635	8.129477873978361	492.56021708967893	584.0061872012839	-3.0534351145038165	6.916030534351145	1.9236641221374045	0.1649175412293853	0.8305847076461769	0.9385307346326837	
1.710400237886174E12	1.9239130434782608	-6.391304347826087	3.619565217391304	3954.5787545787543	128.0	128.0	-6.136036054615505	14.332659164984129	8.196623110368623	492.5266805322982	584.0427528670732	-2.610687022900763	7.358778625954198	1.8625954198473282	0.17391304347826086	0.8245877061469266	0.9580209895052474	
1.710400237905706E12	1.967391304347826	-6.380434782608695	3.608695652173913	3954.5787545787543	128.0	128.0	-6.079997549056715	14.337491314112105	8.25749376505539	492.48766273113046	584.0868913038839	-2.732824427480916	7.648854961832061	2.4732824427480917	0.17691154422788605	0.8305847076461769	0.9385307346326837	
1.710400237925238E12	1.934782608695652	-6.315217391304348	3.608695652173913	3954.5787545787543	128.0	128.0	-6.026916030277733	14.3893467652019	8.362430734924166	492.4584534714763	584.0864585741114	-2.5343511450381677	7.2824427480916025	2.3206106870229006	0.15892053973013492	0.8245877061469266	0.9475262368815592	
1.71040023794477E12	1.9021739130434783	-6.358695652173913	3.641304347826087	3953.113553113553	128.0	128.0	-6.033262733610003	14.397640752511116	8.364378018901112	492.47374325677674	584.0141927020779	-3.480916030534351	7.206106870229007	2.3206106870229006	0.16941529235382308	0.8350824587706147	0.9415292353823088	
1.7104002379643018E12	1.9239130434782608	-6.358695652173913	3.6630434782608696	3954.5787545787543	128.0	128.0	-6.172241112260951	14.360281748805257	8.188040636544304	492.4756905407537	583.8960574741433	-2.7938931297709924	6.946564885496183	2.213740458015267	0.1649175412293853	0.8275862068965517	0.95952023988006	
1.7104002379838337E12	1.9130434782608696	-6.3478260869565215	3.641304347826087	3929.6703296703295	128.0	128.0	-6.265422256639273	14.304315364875244	8.03889310823597	492.48658090669886	583.8321577110479	-2.259541984732824	6.625954198473282	2.091603053435114	0.17391304347826086	0.8320839580209894	0.9475262368815592	
1.7104002380033657E12	1.9021739130434783	-6.326086956521739	3.6304347826086953	3956.043956043956	128.0	128.0	-6.3288171683331935	14.256498724996892	7.927681556663699	492.45470314677993	583.8090787898396	-2.900763358778626	6.763358778625954	1.83206106870229	0.16941529235382308	0.8125937031484257	0.9460269865067465	
1.7104002380228977E12	1.891304347826087	-6.358695652173913	3.608695652173913	3956.043956043956	128.0	128.0	-6.343385737345903	14.244165926476231	7.900780189130329	492.4777820679882	583.8040302758253	-2.8244274809160306	6.687022900763359	1.7404580152671756	0.17391304347826086	0.8140929535232384	0.9550224887556221	
1.7104002380424297E12	1.9021739130434783	-6.369565217391304	3.6739130434782608	3953.113553113553	128.0	128.0	-6.344106953633661	14.258878738746493	7.9147717851128325	492.4824699738586	583.8046072488555	-2.3664122137404577	6.152671755725191	1.5572519083969465	0.1634182908545727	0.8215892053973013	0.9475262368815592	
1.7104002380619617E12	1.891304347826087	-6.4021739130434785	3.5869565217391304	3954.5787545787543	128.0	128.0	-6.343674223861006	14.247555643028694	7.903881419167688	492.4881675825319	583.8034533027951	-2.763358778625954	5.709923664122138	1.282442748091603	0.1664167916041979	0.8185907046476761	0.9325337331334332	
1.7104002380814937E12	1.858695652173913	-6.358695652173913	3.6956521739130435	3954.5787545787543	128.0	128.0	-6.34583787272428	14.259816319920578	7.913978447196299	492.4790802573062	583.7987653969248	-1.6335877862595418	6.229007633587786	0.8702290076335878	0.17241379310344826	0.8230884557721139	0.9385307346326837	
1.7104002381010256E12	1.9130434782608696	-6.326086956521739	3.619565217391304	3953.113553113553	128.0	128.0	-6.341366331740181	14.260032684806905	7.918666353066725	492.50273615154464	583.8020108702196	-2.091603053435114	4.381679389312977	1.114503816793893	0.17391304347826086	0.8440779610194902	0.9325337331334332	
1.7104002381205576E12	1.891304347826087	-6.358695652173913	3.6630434782608696	3954.5787545787543	128.0	128.0	-6.346703332269589	14.269696983062861	7.922993650793273	492.4886003123046	583.8067708977188	-2.900763358778626	7.770992366412213	1.0687022900763359	0.17241379310344826	0.8380809595202399	0.9310344827586207	
1.7104002381400896E12	1.891304347826087	-6.4021739130434785	3.75	3919.4139194139193	128.0	128.0	-6.3301874792799335	14.273447307759204	7.94325982847927	492.5367775603268	583.8071315058627	-3.3740458015267176	5.755725190839694	1.114503816793893	0.17091454272863568	0.8245877061469266	0.9400299850074962	
1.7104002381596216E12	1.9130434782608696	-6.445652173913043	3.717391304347826	3954.5787545787543	128.0	128.0	-6.322470465000924	14.27214911844124	7.949678653440316	492.5465139802115	583.8077806005217	-3.4198473282442747	6.809160305343511	0.8244274809160305	0.17991004497751123	0.8230884557721139	0.9460269865067465	
1.7104002381791536E12	1.9130434782608696	-6.423913043478261	3.7282608695652173	3954.5787545787543	128.0	128.0	-6.323408046175009	14.263206036473042	7.9397979902980325	492.5473794397568	583.8108097089303	-2.717557251908397	6.900763358778626	0.5801526717557252	0.17841079460269865	0.8395802098950524	0.9475262368815592	
1.7104002381986855E12	1.9130434782608696	-6.391304347826087	3.684782608695652	3954.5787545787543	128.0	128.0	-6.336894790756082	14.269985469577966	7.933090678821884	492.52646416741186	583.7935005180241	-1.9236641221374045	7.908396946564885	0.8854961832061068	0.1619190404797601	0.8305847076461769	0.952023988005997	
1.7104002382182175E12	1.858695652173913	-6.369565217391304	3.6956521739130435	3954.5787545787543	128.0	128.0	-6.33898631799058	14.27027395609307	7.931287638102489	492.4771329733292	583.7888126121536	-1.8473282442748091	8.259541984732824	0.7022900763358778	0.1664167916041979	0.8290854572713643	0.9250374812593702	
1.7104002382377495E12	1.8695652173913042	-6.358695652173913	3.7065217391304346	3954.5787545787543	128.0	128.0	-6.341077845225078	14.257796914314856	7.916719069089779	492.47843116264715	583.7893895851838	-1.8931297709923662	7.816793893129771	0.8244274809160305	0.1619190404797601	0.8275862068965517	0.9310344827586207	
1.7104002382572815E12	1.858695652173913	-6.369565217391304	3.6739130434782608	3953.113553113553	128.0	128.0	-6.3332887093172925	14.255705387080358	7.922416677763066	492.5509855211956	583.7839083413969	-2.3664122137404577	6.824427480916031	0.6717557251908397	0.1634182908545727	0.8320839580209894	0.9430284857571214	
