"sep=	"
Shimmer_6D72_TimestampSync_Unix_CAL	Shimmer_6D72_Accel_LN_X_CAL	Shimmer_6D72_Accel_LN_Y_CAL	Shimmer_6D72_Accel_LN_Z_CAL	Shimmer_6D72_Battery_CAL	Shimmer_6D72_ECG_EMG_Status1_CAL	Shimmer_6D72_ECG_EMG_Status2_CAL	Shimmer_6D72_ECG_LA-RA_24BIT_CAL	Shimmer_6D72_ECG_LL-LA_24BIT_CAL	Shimmer_6D72_ECG_LL-RA_24BIT_CAL	Shimmer_6D72_ECG_RESP_24BIT_CAL	Shimmer_6D72_ECG_Vx-RL_24BIT_CAL	Shimmer_6D72_Gyro_X_CAL	Shimmer_6D72_Gyro_Y_CAL	Shimmer_6D72_Gyro_Z_CAL	Shimmer_6D72_Mag_X_CAL	Shimmer_6D72_Mag_Y_CAL	Shimmer_6D72_Mag_Z_CAL	
ms	m/(s^2)	m/(s^2)	m/(s^2)	mV	no_units	no_units	mV	mV	mV	mV	mV	deg/s	deg/s	deg/s	local_flux	local_flux	local_flux	
1.710400954334451E12	2.608695652173913	-6.456521739130435	2.032608695652174	3928.205128205128	128.0	128.0	2.7618256523401326	26.764120073809636	29.525945726149768	480.99883151040456	576.4000959873314	-4.351145038167939	7.3893129770992365	0.7786259541984732	0.17091454272863568	0.8035982008995503	0.9430284857571214	
1.7104009543539827E12	2.5760869565217392	-6.489130434782608	2.0978260869565215	3950.18315018315	128.0	128.0	2.7742305724895684	26.839559297509112	29.61378986999868	481.0004903078664	576.4260597736907	-4.458015267175572	7.603053435114504	0.1984732824427481	0.1649175412293853	0.8020989505247376	0.9490254872563718	
1.7104009543735142E12	2.630434782608696	-6.543478260869565	2.1630434782608696	3950.18315018315	128.0	128.0	2.7653596121501463	26.847709041560776	29.613068653710922	481.0010672808966	576.4094717990723	-4.8396946564885495	7.450381679389313	0.4580152671755725	0.17241379310344826	0.8050974512743628	0.952023988005997	
1.710400954393046E12	2.6956521739130435	-6.532608695652174	2.0652173913043477	3932.6007326007325	128.0	128.0	2.7300921356787846	26.778183791420915	29.5082759270997	480.99854302388945	576.34715871181	-4.33587786259542	6.7328244274809155	0.916030534351145	0.17091454272863568	0.7961019490254873	0.9655172413793103	
1.7104009544125776E12	2.6739130434782608	-6.467391304347826	2.0543478260869565	3951.6483516483513	128.0	128.0	2.7022531869713293	26.693296634351807	29.395549821323137	480.9972448345715	576.2848456245478	-2.854961832061069	7.679389312977099	1.099236641221374	0.16941529235382308	0.8095952023988006	0.9670164917541229	
1.7104009544321094E12	2.6630434782608696	-6.445652173913043	2.141304347826087	3951.6483516483513	128.0	128.0	2.664533575121591	26.58446509652914	29.24899867165073	480.9984709022607	576.2488569317886	-3.068702290076336	7.221374045801526	1.4198473282442747	0.17391304347826086	0.8065967016491754	0.9505247376311844	
1.710400954451641E12	2.5760869565217392	-6.478260869565217	1.9782608695652173	3951.6483516483513	128.0	128.0	2.654364425464204	26.550784295890843	29.205148721355048	481.0002739429801	576.2417890121686	-3.66412213740458	7.480916030534351	1.0381679389312977	0.17091454272863568	0.7961019490254873	0.9580209895052474	
1.7104009544711729E12	2.7065217391304346	-6.478260869565217	2.010869565217391	3951.6483516483513	128.0	128.0	2.6568886824713567	26.51998836040358	29.17687704287494	480.999336361806	576.2363798900104	-3.4045801526717554	3.4045801526717554	0.7022900763358778	0.15592203898050974	0.7961019490254873	0.9730134932533733	
1.7104009544907046E12	2.5652173913043477	-6.413043478260869	2.282608695652174	3950.18315018315	128.0	128.0	2.6601341557662677	26.525541725819316	29.185675881585585	480.998038172488	576.2502993643641	-2.7022900763358777	10.381679389312977	1.0381679389312977	0.1664167916041979	0.7856071964017991	0.9655172413793103	
1.7104009545102363E12	2.760869565217391	-6.456521739130435	2.0	3951.6483516483513	128.0	128.0	2.660639007167698	26.55684251270801	29.217481519875708	480.9955139154809	576.2551315134921	-5.022900763358779	3.297709923664122	0.8396946564885496	0.16941529235382308	0.8050974512743628	0.9670164917541229	
1.710400954529768E12	2.5978260869565215	-6.478260869565217	2.130434782608696	3951.6483516483513	128.0	128.0	2.6752075761804077	26.577180812022785	29.252388388203194	480.9987593887758	576.2505878508792	-3.114503816793893	6.946564885496183	1.0687022900763359	0.17841079460269865	0.8035982008995503	0.9685157421289355	
1.7104009545492998E12	2.5978260869565215	-6.456521739130435	2.1630434782608696	3931.135531135531	128.0	128.0	2.677803954816336	26.58295054232485	29.260754497141185	480.99623513176863	576.2575115272417	-3.114503816793893	7.022900763358779	0.549618320610687	0.1649175412293853	0.8095952023988006	0.9700149925037481	
1.7104009545688315E12	2.6956521739130435	-6.521739130434782	2.119565217391304	3951.6483516483513	128.0	128.0	2.674053630119995	26.572420784523583	29.24647441464358	480.9948648208219	576.2498666345915	-3.2671755725190836	5.145038167938931	0.549618320610687	0.1649175412293853	0.7946026986506747	0.9670164917541229	
1.7104009545883633E12	2.6956521739130435	-6.489130434782608	2.152173913043478	3951.6483516483513	128.0	128.0	2.679174265763076	26.556265539677806	29.235439805440883	480.9960908885111	576.247414499213	-2.091603053435114	6.549618320610687	0.3969465648854962	0.1829085457271364	0.8065967016491754	0.9655172413793103	
1.7104009546078948E12	2.6956521739130435	-6.434782608695652	2.141304347826087	3950.18315018315	128.0	128.0	2.6691493593632414	26.526551428622177	29.19570078798542	480.9984709022607	576.24229386357	-1.8931297709923662	6.625954198473282	0.6564885496183206	0.15742128935532235	0.8095952023988006	0.9700149925037481	
1.7104009546274265E12	2.6630434782608696	-6.423913043478261	2.130434782608696	3935.531135531135	128.0	128.0	2.6653269130381245	26.518762292714392	29.184089205752517	480.99652361828373	576.240058093078	-3.068702290076336	6.931297709923664	0.366412213740458	0.17391304347826086	0.8035982008995503	0.9610194902548725	
1.7104009546469583E12	2.6630434782608696	-6.467391304347826	2.0869565217391304	3928.205128205128	128.0	128.0	2.660422642281371	26.52207988763808	29.18250252991945	480.99940848343476	576.2365962548968	-4.396946564885496	6.946564885496183	0.7786259541984732	0.17091454272863568	0.8035982008995503	0.9550224887556221	
1.71040095466649E12	2.630434782608696	-6.489130434782608	2.119565217391304	3951.6483516483513	128.0	128.0	2.6589080880770792	26.509314359344764	29.168222447421844	480.9974611994578	576.22462406452	-3.9389312977099236	6.931297709923664	0.7480916030534351	0.1664167916041979	0.7886056971514243	0.9580209895052474	
1.7104009546860217E12	2.7065217391304346	-6.489130434782608	2.0652173913043477	3950.18315018315	128.0	128.0	2.657537777130339	26.50029915574779	29.15783693287813	480.99796605085925	576.237461714442	-2.9618320610687023	6.885496183206107	0.916030534351145	0.17841079460269865	0.8065967016491754	0.9550224887556221	
1.7104009547055535E12	2.608695652173913	-6.467391304347826	2.0978260869565215	3931.135531135531	128.0	128.0	2.6545086687217556	26.497991263626965	29.15249993234872	480.9989036320333	576.2428708366002	-3.1755725190839694	7.938931297709924	1.3587786259541985	0.1649175412293853	0.7871064467766117	0.9745127436281859	
1.7104009547250852E12	2.608695652173913	-6.489130434782608	2.130434782608696	3951.6483516483513	128.0	128.0	2.6559511012972714	26.488903938401215	29.144855039698488	480.9963072533974	576.2458278233801	-2.916030534351145	7.3893129770992365	1.2519083969465647	0.17391304347826086	0.8065967016491754	0.9655172413793103	
1.710400954744617E12	2.619565217391304	-6.521739130434782	2.0978260869565215	3950.18315018315	128.0	128.0	2.6493159114498988	26.498712479914722	29.148028391364623	480.9921241989284	576.2432314447441	-3.32824427480916	6.595419847328244	1.1755725190839694	0.15592203898050974	0.8065967016491754	0.9655172413793103	
1.7104009547641487E12	2.630434782608696	-6.489130434782608	2.0869565217391304	3948.7179487179483	128.0	128.0	2.6479456005031587	26.488687573514888	29.136633174018048	480.9963793750262	576.2362356467528	-2.5801526717557253	7.083969465648854	1.0076335877862594	0.17691154422788605	0.8125937031484257	0.9565217391304347	
1.7104009547836804E12	2.6630434782608696	-6.456521739130435	2.0760869565217392	3950.18315018315	128.0	128.0	2.6539316956915493	26.516959251994997	29.170890947686548	480.9974611994578	576.2288792406177	-2.396946564885496	6.671755725190839	0.8091603053435115	0.17241379310344826	0.8020989505247376	0.952023988005997	
1.7104009548032122E12	2.641304347826087	-6.456521739130435	2.0978260869565215	3950.18315018315	128.0	128.0	2.6714572514840667	26.55878979668496	29.230247048169026	480.9991921185484	576.2260664970954	-2.732824427480916	7.526717557251908	0.6870229007633587	0.1634182908545727	0.8110944527736131	0.9655172413793103	
1.710400954822744E12	2.652173913043478	-6.478260869565217	2.152173913043478	3951.6483516483513	128.0	128.0	2.6642450886064877	26.60177428743533	29.266019376041818	480.9983266590031	576.1946935885779	-2.9923664122137406	7.129770992366412	0.9465648854961831	0.17241379310344826	0.7976011994002998	0.9490254872563718	
1.7104009548422754E12	2.6630434782608696	-6.456521739130435	2.1630434782608696	3950.18315018315	128.0	128.0	2.6814100362551256	26.531167212863828	29.212577249118954	480.99883151040456	576.2381829307297	-3.312977099236641	6.549618320610687	1.099236641221374	0.1664167916041979	0.8035982008995503	0.9655172413793103	
1.7104009548618071E12	2.6739130434782608	-6.445652173913043	2.108695652173913	3929.6703296703295	128.0	128.0	2.6462868030413156	26.49770277711186	29.14398958015318	480.9973169562003	576.2328459302004	-2.900763358778626	6.045801526717557	1.0534351145038168	0.17241379310344826	0.8095952023988006	0.95952023988006	
1.7104009548813389E12	2.6739130434782608	-6.489130434782608	2.0217391304347827	3951.6483516483513	128.0	128.0	2.6445558839506966	26.466113503708065	29.110669387658763	480.9977496859729	576.2540496890605	-3.3435114503816794	5.877862595419847	0.8396946564885496	0.15742128935532235	0.8050974512743628	0.9640179910044977	
1.7104009549008706E12	2.630434782608696	-6.478260869565217	2.152173913043478	3951.6483516483513	128.0	128.0	2.7818033435110263	26.71421190669679	29.496015250207815	481.00092303763904	576.2538333241741	-2.3053435114503817	7.374045801526718	0.9465648854961831	0.1664167916041979	0.8035982008995503	0.9550224887556221	
1.7104009549204023E12	2.7065217391304346	-6.510869565217391	2.0978260869565215	3948.7179487179483	128.0	128.0	3.034806017256501	27.734155980844022	30.768961998100522	481.0043127541915	575.6444055610187	-2.946564885496183	5.694656488549618	0.6412213740458015	0.1634182908545727	0.8110944527736131	0.9835082458770614	
1.710400954939934E12	2.619565217391304	-6.478260869565217	2.0869565217391304	3950.18315018315	128.0	128.0	2.7012434841684683	26.419378688261354	29.120622172429822	481.0043848758203	575.6974870797977	-2.610687022900763	6.534351145038167	0.7786259541984732	0.15142428785607195	0.800599700149925	0.9580209895052474	
1.7104009549594658E12	2.641304347826087	-6.413043478260869	1.9239130434782608	3929.6703296703295	128.0	128.0	2.718480553445882	26.405603457165178	29.12408401061106	481.0004903078664	576.1405302453674	-3.068702290076336	-1.3435114503816794	-0.24427480916030533	0.17841079460269865	0.800599700149925	0.9685157421289355	
1.7104009549789976E12	2.5652173913043477	-6.543478260869565	2.260869565217391	3951.6483516483513	128.0	128.0	2.6770106168998025	26.513064684041105	29.190075300940908	480.9996248483211	576.2552036351209	-3.2519083969465647	8.259541984732824	0.6412213740458015	0.1619190404797601	0.8095952023988006	0.9565217391304347	
1.7104009549985293E12	2.7065217391304346	-6.380434782608695	2.217391304347826	3950.18315018315	128.0	128.0	2.682996712088193	26.50065976389167	29.183656475979863	480.99926424017724	576.2748207181479	1.0229007633587786	7.633587786259541	1.6946564885496183	0.17091454272863568	0.8065967016491754	0.9730134932533733	
1.710400955018061E12	2.7282608695652173	-6.4021739130434785	1.9565217391304348	3928.205128205128	128.0	128.0	2.6973489162145756	26.535566632219155	29.23291554843373	480.9999133348362	576.2910480846224	-3.282442748091603	5.2824427480916025	0.9618320610687022	0.17241379310344826	0.8050974512743628	0.9565217391304347	
1.7104009550375928E12	2.5978260869565215	-6.489130434782608	2.152173913043478	3951.6483516483513	128.0	128.0	2.7039841060619483	26.549486106572882	29.25347021263483	480.9976054427154	576.2885238276153	-3.9541984732824424	8.106870229007633	0.6870229007633587	0.1634182908545727	0.8065967016491754	0.9550224887556221	
1.7104009550571245E12	2.5978260869565215	-6.554347826086956	2.2065217391304346	3951.6483516483513	128.0	128.0	2.723096337687533	26.5899463403161	29.313042678003633	481.0031588081311	576.3165791412091	-2.3664122137404577	6.519083969465648	0.2748091603053435	0.1634182908545727	0.800599700149925	0.9655172413793103	
1.710400955076656E12	2.6739130434782608	-6.543478260869565	2.0652173913043477	3948.7179487179483	128.0	128.0	2.7339867036326773	26.630406574059318	29.364393277691995	480.9989036320333	576.3216997768521	-3.465648854961832	5.709923664122138	0.2900763358778626	0.1649175412293853	0.8020989505247376	0.9640179910044977	
1.7104009550961877E12	2.6956521739130435	-6.456521739130435	2.0760869565217392	3950.18315018315	128.0	128.0	2.7482667861302836	26.67303045666581	29.421297242796093	480.9972448345715	576.3608618212774	-1.5725190839694656	7.1603053435114505	0.183206106870229	0.17091454272863568	0.8065967016491754	0.9610194902548725	
1.7104009551157195E12	2.6630434782608696	-6.445652173913043	2.0652173913043477	3928.205128205128	128.0	128.0	2.774735423890999	26.763975830552084	29.538711254443083	480.9936387531327	576.4109863532766	-1.4351145038167938	6.6106870229007635	0.2900763358778626	0.1634182908545727	0.8110944527736131	0.9550224887556221	
1.7104009551352512E12	2.619565217391304	-6.478260869565217	2.130434782608696	3950.18315018315	128.0	128.0	2.7832457760865426	26.811071254142675	29.594317030229217	481.0005624294952	576.4295216118719	-2.0	7.862595419847328	0.7786259541984732	0.17841079460269865	0.8065967016491754	0.9475262368815592	
1.710400955154783E12	2.6739130434782608	-6.478260869565217	2.1739130434782608	3950.18315018315	128.0	128.0	2.765071125635043	26.838621716335027	29.60369284197007	480.99681210479883	576.4006008387329	-1.9389312977099236	7.557251908396946	0.8244274809160305	0.1664167916041979	0.7961019490254873	0.9610194902548725	
1.7104009551743147E12	2.652173913043478	-6.467391304347826	2.152173913043478	3928.205128205128	128.0	128.0	2.732039419655731	26.809989429711038	29.54202884936677	481.0004903078664	576.3579769561263	-1.7709923664122136	8.610687022900763	1.0381679389312977	0.1829085457271364	0.7961019490254873	0.9505247376311844	
1.7104009551938464E12	2.641304347826087	-6.478260869565217	2.141304347826087	3951.6483516483513	128.0	128.0	2.7048495656072578	26.65882249579698	29.363672061404237	481.0014278890405	576.2777777049276	-2.015267175572519	7.511450381679389	1.3893129770992365	0.1649175412293853	0.8020989505247376	0.9640179910044977	
1.7104009552133782E12	2.619565217391304	-6.5	2.2282608695652173	3950.18315018315	128.0	128.0	2.6925888887153735	26.57090623031929	29.263495119034665	480.9981824157456	576.2495781480764	-1.4961832061068703	8.030534351145038	1.0229007633587786	0.15442278860569714	0.815592203898051	0.9745127436281859	
1.71040095523291E12	2.5760869565217392	-6.456521739130435	2.0217391304347827	3950.18315018315	128.0	128.0	2.673765143604892	26.523161712069715	29.196926855674608	481.00121152415414	576.2390483902751	-2.1374045801526718	8.473282442748092	1.0534351145038168	0.16941529235382308	0.8095952023988006	0.9670164917541229	
1.7104009552524417E12	2.760869565217391	-6.456521739130435	2.1847826086956523	3950.18315018315	128.0	128.0	2.6591244529634066	26.51364165707131	29.17276611003472	480.999336361806	576.2447459989484	-1.9083969465648853	3.2671755725190836	0.366412213740458	0.17091454272863568	0.7886056971514243	0.9580209895052474	
1.7104009552719734E12	2.641304347826087	-6.413043478260869	2.3478260869565215	3951.6483516483513	128.0	128.0	2.673693021976116	26.515588941048257	29.189281963024374	481.0004903078664	576.2324853220565	-1.0076335877862594	10.702290076335878	1.1603053435114503	0.17091454272863568	0.8065967016491754	0.9730134932533733	
1.7104009552915051E12	2.7717391304347827	-6.380434782608695	2.0217391304347827	3951.6483516483513	128.0	128.0	2.6736209003473403	26.53008538843219	29.203706288779532	481.0035915379038	576.2643630819754	-3.1755725190839694	4.290076335877862	0.6717557251908397	0.1649175412293853	0.7976011994002998	0.9670164917541229	
1.7104009553110366E12	2.5543478260869565	-6.423913043478261	2.217391304347826	3950.18315018315	128.0	128.0	2.6818427660277804	26.549774593087985	29.231617359115766	481.00012969972255	576.2438805394031	-2.4580152671755724	9.81679389312977	0.9312977099236641	0.1619190404797601	0.8050974512743628	0.9460269865067465	
1.7104009553305684E12	2.630434782608696	-6.478260869565217	2.260869565217391	3928.205128205128	128.0	128.0	2.6882615909888257	26.552226728466362	29.24048831945519	481.0027260783585	576.2466211612965	-3.2061068702290076	7.419847328244274	0.48854961832061067	0.15742128935532235	0.7946026986506747	0.9700149925037481	
1.7104009553501E12	2.6956521739130435	-6.532608695652174	2.1630434782608696	3953.113553113553	128.0	128.0	2.6897040235643415	26.543932741157146	29.23363676472149	481.0035915379038	576.2293840920191	-3.1755725190839694	6.916030534351145	0.5343511450381679	0.15142428785607195	0.8065967016491754	0.9430284857571214	
1.7104009553696318E12	2.7065217391304346	-6.510869565217391	2.2065217391304346	3951.6483516483513	128.0	128.0	2.6935264698894588	26.53592724036303	29.22945371025249	481.0010672808966	576.2261386187242	-1.7862595419847327	7.1603053435114505	0.564885496183206	0.14992503748125938	0.7976011994002998	0.9565217391304347	
1.7104009553891636E12	2.652173913043478	-6.423913043478261	2.141304347826087	3948.7179487179483	128.0	128.0	2.6790300225055246	26.50318402089882	29.182214043404347	481.00063455112394	576.2189264558466	-0.4427480916030534	7.251908396946565	0.6412213740458015	0.1664167916041979	0.8035982008995503	0.9655172413793103	
1.7104009554086953E12	2.5978260869565215	-6.4021739130434785	2.1739130434782608	3950.18315018315	128.0	128.0	2.6725390759157035	26.51263195426845	29.185171030184154	480.9978218076017	576.2122912659993	-0.6717557251908397	7.312977099236641	0.549618320610687	0.1619190404797601	0.8125937031484257	0.9640179910044977	
1.710400955428227E12	2.5760869565217392	-6.413043478260869	2.1956521739130435	3950.18315018315	128.0	128.0	2.664533575121591	26.500082790861462	29.164616365983054	480.999336361806	576.2195755505056	-1.7709923664122136	8.106870229007633	0.732824427480916	0.1649175412293853	0.7976011994002998	0.95952023988006	
1.7104009554477588E12	2.652173913043478	-6.467391304347826	2.152173913043478	3950.18315018315	128.0	128.0	2.6659760076971066	26.484288154159564	29.150264161856672	481.0002739429801	576.2081082115303	-2.717557251908397	6.183206106870228	0.41221374045801523	0.16941529235382308	0.8200899550224887	0.95952023988006	
1.7104009554672905E12	2.6630434782608696	-6.532608695652174	2.1847826086956523	3951.6483516483513	128.0	128.0	2.674125751748771	26.476787504766882	29.150913256515654	480.9997690915786	576.2022663595994	-3.2213740458015265	7.190839694656488	0.8244274809160305	0.17241379310344826	0.7946026986506747	0.95952023988006	
1.7104009554868223E12	2.641304347826087	-6.445652173913043	2.152173913043478	3926.7399267399264	128.0	128.0	2.6707360351963088	26.47202747726768	29.14276351246399	481.00236547021456	576.2181331179302	-2.091603053435114	7.1603053435114505	0.916030534351145	0.1664167916041979	0.8035982008995503	0.9610194902548725	
1.710400955506354E12	2.652173913043478	-6.445652173913043	2.152173913043478	3951.6483516483513	128.0	128.0	2.6649663048942456	26.47303718007054	29.138003484964788	481.00012969972255	576.2192149423618	-2.1068702290076335	6.641221374045801	1.1755725190839694	0.15442278860569714	0.7976011994002998	0.9670164917541229	
1.7104009555258857E12	2.5978260869565215	-6.445652173913043	2.217391304347826	3950.18315018315	128.0	128.0	2.6694378458783445	26.474119004502178	29.143556850380524	481.0046733623354	576.2120027794841	-2.778625954198473	8.244274809160306	0.916030534351145	0.17691154422788605	0.7976011994002998	0.9640179910044977	
1.7104009555454172E12	2.619565217391304	-6.467391304347826	2.1847826086956523	3948.7179487179483	128.0	128.0	2.6814821578839014	26.469431098631752	29.150913256515654	481.00424063256276	576.203348184031	-2.610687022900763	6.900763358778626	0.8702290076335878	0.1634182908545727	0.8035982008995503	0.9580209895052474	
1.710400955564949E12	2.684782608695652	-6.5	2.1630434782608696	3950.18315018315	128.0	128.0	2.693814956404562	26.521430792979096	29.21524574938366	481.0061157949109	576.2081082115303	-2.8702290076335877	7.114503816793893	0.6259541984732824	0.1649175412293853	0.8095952023988006	0.95952023988006	
1.7104009555844807E12	2.6739130434782608	-6.5	2.2065217391304346	3951.6483516483513	128.0	128.0	2.6929494968592524	26.552298850095138	29.24524834695439	481.0021491053283	576.1807741142243	-2.2748091603053435	6.793893129770992	0.5343511450381679	0.1649175412293853	0.8050974512743628	0.9640179910044977	
1.7104009556040125E12	2.6739130434782608	-6.456521739130435	2.217391304347826	3950.18315018315	128.0	128.0	2.7049938088648093	26.503472507413925	29.208466316278734	481.0030145648736	576.2062330491821	-1.3893129770992365	6.595419847328244	0.8854961832061068	0.1664167916041979	0.8065967016491754	0.9610194902548725	
1.7104009556235442E12	2.608695652173913	-6.445652173913043	2.282608695652174	3950.18315018315	128.0	128.0	2.6807609415961435	26.45572798916435	29.136488930760496	480.9999133348362	576.2006075621376	-1.0534351145038168	8.16793893129771	0.6564885496183206	0.1664167916041979	0.8140929535232384	0.9505247376311844	
1.710400955643076E12	2.630434782608696	-6.434782608695652	2.1739130434782608	3926.7399267399264	128.0	128.0	2.669221480992017	26.443323069014916	29.112544550006934	480.99854302388945	576.2276531729285	-1.7404580152671756	6.916030534351145	0.6564885496183206	0.17091454272863568	0.8065967016491754	0.9730134932533733	
1.7104009556626077E12	2.6956521739130435	-6.456521739130435	2.2391304347826084	3951.6483516483513	128.0	128.0	2.732977000829816	26.6197325730005	29.352709573830317	480.9963793750262	576.259026081446	-2.0763358778625953	6.152671755725191	0.32061068702290074	0.1634182908545727	0.8110944527736131	0.9550224887556221	
1.7104009556821394E12	2.6630434782608696	-6.467391304347826	2.2065217391304346	3951.6483516483513	128.0	128.0	3.0089864741547676	27.457641656117637	30.466628130272404	480.9974611994578	575.848581892083	-1.5419847328244274	7.7251908396946565	0.6106870229007634	0.17091454272863568	0.8035982008995503	0.9505247376311844	
1.7104009557016711E12	2.684782608695652	-6.5	2.260869565217391	3950.18315018315	128.0	128.0	2.6251551658100087	26.594129394785092	29.219284560595103	481.00121152415414	575.5781257841737	-1.6335877862595418	4.0	0.564885496183206	0.1664167916041979	0.8110944527736131	0.9550224887556221	
1.710400955721203E12	2.7717391304347827	-6.326086956521739	2.043478260869565	3950.18315018315	128.0	128.0	2.7125665798862673	26.354108614219264	29.06667519410553	481.0014278890405	576.0425169518611	-0.7938931297709924	5.526717557251908	0.9770992366412213	0.1664167916041979	0.8065967016491754	0.9580209895052474	
1.7104009557407346E12	2.4891304347826084	-6.532608695652174	2.4347826086956523	3951.6483516483513	128.0	128.0	2.7048495656072578	26.49568337150614	29.200532937113397	480.9990478752909	576.2167628069834	-5.709923664122138	8.870229007633588	0.12213740458015267	0.1649175412293853	0.8200899550224887	0.9640179910044977	
1.7104009557602664E12	2.684782608695652	-6.391304347826087	2.402173913043478	3951.6483516483513	128.0	128.0	2.682996712088193	26.515300454533154	29.198297166621348	481.0008509160103	576.2462605531526	-0.2595419847328244	10.946564885496183	0.9312977099236641	0.1664167916041979	0.8035982008995503	0.9655172413793103	
1.7104009557797979E12	2.75	-6.369565217391304	2.152173913043478	3950.18315018315	128.0	128.0	2.7055707818950157	26.517031373623773	29.22260215551879	481.0007787943815	576.2598194193625	-1.9541984732824427	6.3969465648854955	1.0687022900763359	0.17391304347826086	0.7961019490254873	0.9580209895052474	
1.7104009557993296E12	2.652173913043478	-6.510869565217391	2.141304347826087	3928.205128205128	128.0	128.0	2.7118453635985094	26.53116721286383	29.24301257646234	481.00063455112394	576.2645073252329	-4.763358778625954	7.435114503816793	0.9312977099236641	0.1649175412293853	0.8050974512743628	0.95952023988006	
1.7104009558188613E12	2.5652173913043477	-6.6521739130434785	2.260869565217391	3951.6483516483513	128.0	128.0	2.7342030685190046	26.55741948573822	29.291622554257223	481.00178849718435	576.2581606219006	-4.8396946564885495	7.419847328244274	0.1984732824427481	0.15442278860569714	0.8050974512743628	0.9640179910044977	
1.710400955838393E12	2.6956521739130435	-6.489130434782608	2.282608695652174	3951.6483516483513	128.0	128.0	2.750863164766212	26.612664653380474	29.363527818146686	481.00121152415414	576.2916250576526	-1.6793893129770991	6.519083969465648	0.5038167938931297	0.17691154422788605	0.8050974512743628	0.9565217391304347	
1.7104009558579248E12	2.684782608695652	-6.413043478260869	2.25	3950.18315018315	128.0	128.0	2.7629074767717694	26.64461453492815	29.407522011699918	481.00337517301745	576.3175167223832	-1.7862595419847327	6.3969465648854955	0.8854961832061068	0.17691154422788605	0.8125937031484257	0.9670164917541229	
1.7104009558774565E12	2.684782608695652	-6.413043478260869	2.152173913043478	3926.7399267399264	128.0	128.0	2.784471843775731	26.738444773965455	29.522916617741185	481.0040963893052	576.3561017937782	-2.0610687022900764	6.7328244274809155	1.114503816793893	0.17091454272863568	0.8065967016491754	0.9580209895052474	
1.7104009558969883E12	2.608695652173913	-6.423913043478261	2.1739130434782608	3936.9963369963366	128.0	128.0	2.8030792239998847	26.79556510395588	29.598644327955764	481.00279819998724	576.3545151179451	-2.3206106870229006	6.3969465648854955	0.732824427480916	0.1664167916041979	0.8140929535232384	0.9655172413793103	
1.71040095591652E12	2.641304347826087	-6.456521739130435	2.2717391304347827	3951.6483516483513	128.0	128.0	2.7693984233615905	26.815182186982895	29.584580610344485	481.00294244324476	576.3119633569675	-2.030534351145038	7.83206106870229	0.7022900763358778	0.17091454272863568	0.8140929535232384	0.9655172413793103	
1.7104009559360518E12	2.7282608695652173	-6.434782608695652	2.25	3950.18315018315	128.0	128.0	2.7448770695778215	26.785540197556045	29.530417267133867	480.9989036320333	576.2643630819754	-2.4427480916030535	6.916030534351145	0.6564885496183206	0.1649175412293853	0.8095952023988006	0.9490254872563718	
1.7104009559555835E12	2.7282608695652173	-6.456521739130435	2.3478260869565215	3926.7399267399264	128.0	128.0	2.7049938088648093	26.707504595220637	29.412498404085447	480.99868726714703	576.2308986462234	-2.4580152671755724	7.511450381679389	0.7938931297709924	0.16941529235382308	0.8095952023988006	0.9670164917541229	
1.7104009559751152E12	2.7282608695652173	-6.510869565217391	2.282608695652174	3951.6483516483513	128.0	128.0	2.672322711029376	26.579705069029938	29.252027780059315	481.00012969972255	576.20046331888	-3.0076335877862594	7.251908396946565	1.1603053435114503	0.15892053973013492	0.8065967016491754	0.9610194902548725	
1.710400955994647E12	2.684782608695652	-6.521739130434782	2.1739130434782608	3950.18315018315	128.0	128.0	2.659340817849734	26.537081186423443	29.196422004273177	481.00539457862317	576.1807019925955	-3.0229007633587783	6.595419847328244	1.129770992366412	0.15592203898050974	0.8065967016491754	0.9610194902548725	
1.7104009560141785E12	2.5543478260869565	-6.456521739130435	2.4239130434782608	3950.18315018315	128.0	128.0	2.6514795603131724	26.513353170556208	29.16483273086938	481.0062600381685	576.1895008313061	-2.8091603053435112	8.259541984732824	1.0076335877862594	0.1634182908545727	0.8110944527736131	0.9475262368815592	
1.7104009560337102E12	2.7282608695652173	-6.369565217391304	2.0869565217391304	3926.7399267399264	128.0	128.0	2.654075938949101	26.520565333433787	29.17464127238289	481.0043127541915	576.1944051020629	-1.1450381679389312	5.312977099236641	0.9923664122137404	0.1664167916041979	0.8110944527736131	0.9655172413793103	
1.710400956053242E12	2.5652173913043477	-6.423913043478261	2.3260869565217392	3941.391941391941	128.0	128.0	2.6705196703099814	26.551433390549825	29.221953060859807	481.00575518676703	576.2006796837663	-3.66412213740458	6.030534351145038	1.4198473282442747	0.1649175412293853	0.8095952023988006	0.95952023988006	
1.7104009560727737E12	2.6630434782608696	-6.445652173913043	2.358695652173913	3951.6483516483513	128.0	128.0	2.6808330632249193	26.55071217426207	29.23154523748699	481.01130855218275	576.2096948873633	-2.33587786259542	8.15267175572519	1.2519083969465647	0.1649175412293853	0.7946026986506747	0.95952023988006	
1.7104009560923054E12	2.7282608695652173	-6.478260869565217	2.2065217391304346	3950.18315018315	128.0	128.0	2.6909300912535303	26.556409782935358	29.24733987418889	481.0100824844936	576.195991777896	-4.183206106870228	4.702290076335878	0.8854961832061068	0.17091454272863568	0.800599700149925	0.9475262368815592	
1.7104009561118372E12	2.7065217391304346	-6.467391304347826	2.2065217391304346	3928.205128205128	128.0	128.0	2.6865306718982067	26.562107391608645	29.248638063506853	481.00734186260013	576.184380195663	-2.763358778625954	7.709923664122137	1.5114503816793892	0.14842578710644677	0.8035982008995503	0.9610194902548725	
1.710400956131369E12	2.684782608695652	-6.423913043478261	2.1739130434782608	3945.7875457875457	128.0	128.0	2.680977306482471	26.54003817320325	29.22101547968572	481.00748610585765	576.1838753442617	-3.541984732824427	6.748091603053435	1.3740458015267174	0.1619190404797601	0.8050974512743628	0.9670164917541229	
1.7104009561509006E12	2.6739130434782608	-6.4021739130434785	2.2282608695652173	3951.6483516483513	128.0	128.0	2.676794252013475	26.523666563471146	29.20046081548462	481.0082794437742	576.1794038032775	-3.4045801526717554	5.816793893129771	0.9465648854961831	0.1649175412293853	0.7946026986506747	0.9565217391304347	
1.7104009561704324E12	2.608695652173913	-6.413043478260869	2.293478260869565	3951.6483516483513	128.0	128.0	2.6615044667130077	26.527777496311366	29.189281963024374	481.0082794437742	576.1767353030128	-3.5877862595419847	7.557251908396946	1.450381679389313	0.1664167916041979	0.7856071964017991	0.9610194902548725	
1.710400956189964E12	2.6630434782608696	-6.489130434782608	2.1956521739130435	3951.6483516483513	128.0	128.0	2.6609274936828013	26.523666563471146	29.184594057153948	481.0067648895699	576.1719752755137	-4.427480916030534	6.442748091603053	1.5114503816793892	0.18590704647676162	0.8035982008995503	0.9655172413793103	
1.7104009562094958E12	2.6630434782608696	-6.445652173913043	2.2282608695652173	3942.8571428571427	128.0	128.0	2.6572492906152356	26.514290751730293	29.17154004234553	481.0040242676764	576.1682249508173	-3.847328244274809	6.778625954198473	1.4351145038167938	0.1664167916041979	0.7961019490254873	0.9580209895052474	
1.7104009562290276E12	2.630434782608696	-6.423913043478261	2.2065217391304346	3950.18315018315	128.0	128.0	2.6445558839506966	26.522440495781957	29.166996379732655	481.00366365953255	576.1904384124803	-2.7938931297709924	7.236641221374046	1.3893129770992365	0.1634182908545727	0.8110944527736131	0.9370314842578711	
1.710400956248559E12	2.6630434782608696	-6.445652173913043	2.217391304347826	3951.6483516483513	128.0	128.0	2.6549413984944104	26.514218630101517	29.16916002859593	480.99998545646497	576.1899335610788	-3.969465648854962	5.801526717557252	1.099236641221374	0.1619190404797601	0.7901049475262368	0.9565217391304347	
1.7104009562680908E12	2.608695652173913	-6.467391304347826	2.3260869565217392	3928.205128205128	128.0	128.0	2.6421758702010956	26.5285708342279	29.170746704428996	480.9991921185484	576.176374694869	-4.351145038167939	7.786259541984733	1.0687022900763359	0.1664167916041979	0.800599700149925	0.9655172413793103	
1.7104009562876226E12	2.641304347826087	-6.489130434782608	2.25	3951.6483516483513	128.0	128.0	2.6438346676629387	26.569608041001324	29.213442708664264	481.00308668650234	576.1960638995247	-4.687022900763359	6.458015267175572	1.099236641221374	0.15742128935532235	0.8050974512743628	0.95952023988006	
1.7104009563071543E12	2.630434782608696	-6.478260869565217	2.282608695652174	3950.18315018315	128.0	128.0	2.661360223455456	26.6173525592509	29.278712782706357	481.0053224569944	576.1768795462704	-4.519083969465648	6.549618320610687	1.2671755725190839	0.1619190404797601	0.7976011994002998	0.9565217391304347	
1.710400956326686E12	2.6630434782608696	-6.423913043478261	2.25	3948.7179487179483	128.0	128.0	2.701027119282141	26.605452490502895	29.306479609785036	481.00604367328214	576.1830820063451	-4.106870229007633	6.580152671755725	1.0534351145038168	0.17241379310344826	0.8125937031484257	0.9700149925037481	
1.7104009563462178E12	2.652173913043478	-6.413043478260869	2.217391304347826	3951.6483516483513	128.0	128.0	2.6529219928886882	26.562684364638848	29.215606357527538	481.0072697409713	576.1881305203594	-4.442748091603053	5.587786259541985	0.9618320610687022	0.17091454272863568	0.8065967016491754	0.9610194902548725	
1.7104009563657495E12	2.630434782608696	-6.4021739130434785	2.260869565217391	3942.8571428571427	128.0	128.0	2.640661315996804	26.531527821007707	29.172189137004512	481.00892853843317	576.1803413844516	-4.381679389312977	6.458015267175572	1.3587786259541985	0.16941529235382308	0.8095952023988006	0.95952023988006	
1.7104009563852812E12	2.6630434782608696	-6.423913043478261	2.260869565217391	3950.18315018315	128.0	128.0	2.648161965389486	26.553813404299426	29.201975369688913	481.0071254977138	576.2333507816018	-4.625954198473282	5.893129770992366	1.4961832061068703	0.16941529235382308	0.7976011994002998	0.9670164917541229	
1.710400956404813E12	2.5869565217391304	-6.5	2.25	3950.18315018315	128.0	128.0	2.903544652884561	27.059313900388943	29.962858553273506	481.0051782137368	576.1549545711225	-5.221374045801526	6.99236641221374	1.1450381679389312	0.16941529235382308	0.7901049475262368	0.9670164917541229	
1.7104009564243447E12	2.619565217391304	-6.543478260869565	2.1739130434782608	3926.7399267399264	128.0	128.0	2.5974604603601055	27.147230165866638	29.744690626226742	481.0067648895699	575.375391885685	-4.885496183206107	4.625954198473282	0.48854961832061067	0.1664167916041979	0.800599700149925	0.9730134932533733	
1.7104009564438765E12	2.652173913043478	-6.391304347826087	2.032608695652174	3951.6483516483513	128.0	128.0	2.6506862223966388	26.432865432842426	29.083551655239066	481.0049618488505	575.890051828629	-3.969465648854962	6.900763358778626	1.083969465648855	0.15442278860569714	0.7871064467766117	0.9700149925037481	
1.7104009564634082E12	2.532608695652174	-6.532608695652174	2.1956521739130435	3950.18315018315	128.0	128.0	2.683285198603296	26.545807903505313	29.22909310210861	481.0046733623354	576.220729496566	-5.816793893129771	-1.5267175572519083	-0.24427480916030533	0.15142428785607195	0.8110944527736131	0.9655172413793103	
1.7104009564829397E12	2.608695652173913	-6.478260869565217	2.369565217391304	3950.18315018315	128.0	128.0	2.65580685803972	26.581147501605454	29.236954359645175	481.00323092975987	576.232629565314	-6.488549618320611	12.793893129770991	1.2061068702290076	0.1649175412293853	0.8125937031484257	0.9745127436281859	
1.7104009565024714E12	2.760869565217391	-6.3478260869565215	2.141304347826087	3951.6483516483513	128.0	128.0	2.6708802784538603	26.61201555872149	29.282895837175353	481.00121152415414	576.2601800275064	-2.259541984732824	4.290076335877862	1.7557251908396947	0.1619190404797601	0.8020989505247376	0.952023988005997	
1.7104009565220032E12	2.630434782608696	-6.445652173913043	2.043478260869565	3944.322344322344	128.0	128.0	2.6639566020913845	26.63278658780892	29.296743189900305	481.00070667275276	576.2645073252329	-6.137404580152672	8.106870229007633	1.8473282442748091	0.15892053973013492	0.8065967016491754	0.9685157421289355	
1.710400956541535E12	2.5	-6.630434782608695	2.152173913043478	3923.8095238095234	128.0	128.0	2.684006414891054	26.651898819434503	29.33590523432556	480.9954417938521	576.2998469233331	-8.839694656488549	6.290076335877862	1.2061068702290076	0.1634182908545727	0.793103448275862	0.9685157421289355	
1.7104009565610667E12	2.5869565217391304	-6.565217391304348	2.2065217391304346	3951.6483516483513	128.0	128.0	2.7065804846978767	26.689762674541793	29.39634315923967	480.9963793750262	576.2963129635231	-5.083969465648854	6.106870229007633	0.6870229007633587	0.1634182908545727	0.793103448275862	0.9580209895052474	
1.7104009565805984E12	2.6739130434782608	-6.489130434782608	2.1739130434782608	3928.205128205128	128.0	128.0	2.7189132832185368	26.732891408549715	29.451804691768253	480.9948648208219	576.3189591549586	-3.9236641221374042	4.213740458015267	0.6106870229007634	0.17241379310344826	0.7901049475262368	0.9670164917541229	
1.7104009566001301E12	2.6739130434782608	-6.423913043478261	2.0978260869565215	3951.6483516483513	128.0	128.0	2.7455261642368036	26.813090659748397	29.5586168239852	480.9883738742321	576.36836247067	-3.83206106870229	5.435114503816794	1.4809160305343512	0.17241379310344826	0.8020989505247376	0.9745127436281859	
1.7104009566196619E12	2.6739130434782608	-6.423913043478261	2.010869565217391	3951.6483516483513	128.0	128.0	2.770985099194658	26.873817071177612	29.64480217037227	480.9839744548768	576.3673527678673	-3.7404580152671754	6.671755725190839	1.66412213740458	0.16941529235382308	0.7976011994002998	0.95952023988006	
1.7104009566391936E12	2.5978260869565215	-6.456521739130435	2.119565217391304	3950.18315018315	128.0	128.0	2.7448770695778215	26.91016637208061	29.65504344165843	480.98729204980043	576.3540823881725	-3.8931297709923665	7.343511450381679	1.3740458015267174	0.17091454272863568	0.800599700149925	0.9655172413793103	
1.7104009566587253E12	2.608695652173913	-6.467391304347826	2.152173913043478	3951.6483516483513	128.0	128.0	2.725836959581013	26.90071843871098	29.626555398291995	480.9871478065429	576.3201852226479	-4.396946564885496	5.358778625954198	0.42748091603053434	0.1829085457271364	0.800599700149925	0.9610194902548725	
1.710400956678257E12	2.619565217391304	-6.456521739130435	2.141304347826087	3951.6483516483513	128.0	128.0	2.6824918606867625	26.777823183277032	29.460315043963796	480.9875084146868	576.2634255008013	-3.969465648854962	5.908396946564885	0.564885496183206	0.1664167916041979	0.8065967016491754	0.9610194902548725	
1.7104009566977888E12	2.619565217391304	-6.489130434782608	2.1739130434782608	3950.18315018315	128.0	128.0	2.6565280743274777	26.685579620072797	29.342107694400276	480.9898163068076	576.2298168217918	-4.717557251908397	5.435114503816794	0.183206106870229	0.15892053973013492	0.8035982008995503	0.9610194902548725	
1.7104009567173206E12	2.630434782608696	-6.5	2.0869565217391304	3951.6483516483513	128.0	128.0	2.6384255455047545	26.63091142546075	29.269336970965504	480.9889508472623	576.2126518741431	-4.916030534351145	4.076335877862595	0.061068702290076333	0.1649175412293853	0.8050974512743628	0.9565217391304347	
1.710400956736852E12	2.7065217391304346	-6.532608695652174	2.1630434782608696	3925.274725274725	128.0	128.0	2.630708531225745	26.589946340316096	29.220654871541843	480.9905375230953	576.2108488334237	-3.9847328244274807	8.687022900763358	0.8854961832061068	0.1619190404797601	0.7976011994002998	0.95952023988006	
1.7104009567563838E12	2.6739130434782608	-6.456521739130435	2.152173913043478	3950.18315018315	128.0	128.0	2.631069139369624	26.565641351418655	29.19671049078828	480.99169146915574	576.1954148048658	-3.5877862595419847	4.015267175572519	0.8244274809160305	0.15892053973013492	0.8035982008995503	0.9760119940029984	
1.7104009567759155E12	2.652173913043478	-6.445652173913043	1.967391304347826	3948.7179487179483	128.0	128.0	2.6453492218672303	26.604803395843913	29.250152617711144	480.98916721214863	576.1992372511909	-3.465648854961832	8.748091603053435	1.5419847328244274	0.14842578710644677	0.7961019490254873	0.9550224887556221	
1.7104009567954473E12	2.4456521739130435	-6.423913043478261	2.1847826086956523	3948.7179487179483	128.0	128.0	2.643041329746405	26.618145897167434	29.26118722691384	480.98786902283064	576.2077476033865	-2.7022900763358777	5.801526717557252	0.5190839694656488	0.15742128935532235	0.7976011994002998	0.9565217391304347	
1.710400956814979E12	2.608695652173913	-6.434782608695652	2.1630434782608696	3950.18315018315	128.0	128.0	2.6656875211820035	26.626295641219098	29.291983162401102	480.9826762655588	576.203348184031	-3.847328244274809	5.083969465648854	0.42748091603053434	0.17991004497751123	0.8050974512743628	0.952023988005997	
1.7104009568345107E12	2.717391304347826	-6.510869565217391	2.1956521739130435	3950.18315018315	128.0	128.0	2.667274197015071	26.617785289023555	29.285059486038627	480.9849841576796	576.1941166155477	-3.282442748091603	7.435114503816793	0.8702290076335878	0.17841079460269865	0.8065967016491754	0.9730134932533733	
1.7104009568540425E12	2.7065217391304346	-6.521739130434782	2.2065217391304346	3951.6483516483513	128.0	128.0	2.664100845348936	26.597879719481437	29.261980564830374	480.9865708335127	576.2021221163419	-2.7938931297709924	7.3893129770992365	1.5114503816793892	0.15592203898050974	0.8110944527736131	0.9610194902548725	
1.7104009568735742E12	2.652173913043478	-6.5	2.130434782608696	3950.18315018315	128.0	128.0	2.6514074386843967	26.57306987918256	29.22447731786696	480.98476779279326	576.2272204431558	-2.687022900763359	7.541984732824427	1.5877862595419847	0.1664167916041979	0.8035982008995503	0.9730134932533733	
1.710400956893106E12	2.5652173913043477	-6.456521739130435	2.0869565217391304	3926.7399267399264	128.0	128.0	2.6449886137233514	26.57602686596237	29.22101547968572	480.9856332523386	576.2147434013776	-3.709923664122137	7.511450381679389	1.114503816793893	0.1664167916041979	0.8110944527736131	0.9580209895052474	
1.7104009569126377E12	2.532608695652174	-6.445652173913043	2.0760869565217392	3951.6483516483513	128.0	128.0	2.643113451375181	26.573574730583992	29.216688181959174	480.98404657650553	576.2166185637258	-4.061068702290076	7.557251908396946	1.1450381679389312	0.17091454272863568	0.8035982008995503	0.9610194902548725	
1.7104009569321694E12	2.5869565217391304	-6.489130434782608	2.108695652173913	3951.6483516483513	128.0	128.0	2.628689125620023	26.572348662894804	29.201037788514828	480.9893835770349	576.2177725097862	-3.709923664122137	6.519083969465648	1.0381679389312977	0.17091454272863568	0.8035982008995503	0.9610194902548725	
1.7104009569517012E12	2.652173913043478	-6.467391304347826	2.119565217391304	3950.18315018315	128.0	128.0	2.6390746401637366	26.541841213922645	29.180915854086383	480.9934945098752	576.2211622263387	-3.3740458015267176	6.290076335877862	0.8091603053435115	0.17841079460269865	0.7961019490254873	0.9580209895052474	
1.7104009569712327E12	2.6739130434782608	-6.456521739130435	2.0978260869565215	3950.18315018315	128.0	128.0	2.626020625355318	26.560809202290677	29.186829827645997	480.99298965847373	576.2145991581201	-3.7862595419847325	7.32824427480916	1.2671755725190839	0.15442278860569714	0.8275862068965517	0.9700149925037481	
1.7104009569907644E12	2.641304347826087	-6.510869565217391	2.119565217391304	3951.6483516483513	128.0	128.0	2.6190969489928424	26.556914634336785	29.17601158332963	480.99399936127656	576.2221719291416	-3.9083969465648853	6.931297709923664	1.099236641221374	0.17991004497751123	0.7976011994002998	0.9490254872563718	
1.7104009570102961E12	2.652173913043478	-6.467391304347826	2.0760869565217392	3950.18315018315	128.0	128.0	2.6258763820977666	26.55186612032248	29.177742502420248	480.98786902283064	576.2032039407735	-3.16030534351145	6.106870229007633	0.7938931297709924	0.17091454272863568	0.793103448275862	0.9580209895052474	
1.710400957029828E12	2.619565217391304	-6.456521739130435	2.0869565217391304	3950.18315018315	128.0	128.0	2.6315739907710545	26.554534620587184	29.18610861135824	480.9905375230953	576.2101997387648	-3.2061068702290076	7.374045801526718	0.8396946564885496	0.17691154422788605	0.8020989505247376	0.95952023988006	
1.7104009570493596E12	2.5869565217391304	-6.467391304347826	2.119565217391304	3926.7399267399264	128.0	128.0	2.627967909332265	26.600620341374913	29.22858825070718	480.9890950905198	576.2200082802783	-3.9083969465648853	6.458015267175572	0.48854961832061067	0.17091454272863568	0.800599700149925	0.9685157421289355	
1.7104009570688914E12	2.641304347826087	-6.467391304347826	2.0978260869565215	3951.6483516483513	128.0	128.0	2.6443395190643693	26.649663048942454	29.294002568006825	480.98635446862636	576.2106324685375	-3.8167938931297707	6.580152671755725	0.41221374045801523	0.17091454272863568	0.7961019490254873	0.9655172413793103	
1.710400957088423E12	2.630434782608696	-6.445652173913043	2.152173913043478	3951.6483516483513	128.0	128.0	2.6933101050031314	26.6060294635331	29.299339568536233	480.98931145540615	576.2263549836106	-3.969465648854962	7.038167938931298	0.42748091603053434	0.15742128935532235	0.815592203898051	0.9745127436281859	
1.7104009571079548E12	2.641304347826087	-6.478260869565217	2.108695652173913	3950.18315018315	128.0	128.0	2.647873478874383	26.56095344554823	29.208826924422613	480.98916721214863	576.2248404294063	-3.9083969465648853	5.709923664122138	0.3969465648854962	0.16941529235382308	0.8050974512743628	0.95952023988006	
1.7104009571274866E12	2.641304347826087	-6.456521739130435	2.043478260869565	3925.274725274725	128.0	128.0	2.627102449786955	26.53405207801486	29.161154527801816	480.9918357124133	576.2176282665287	-3.5114503816793894	6.305343511450381	0.21374045801526717	0.1634182908545727	0.8035982008995503	0.9580209895052474	
1.7104009571470183E12	2.630434782608696	-6.445652173913043	2.108695652173913	3947.252747252747	128.0	128.0	2.6294824635365566	26.563044972782727	29.192527436319285	480.9883738742321	576.2440969042894	-3.3893129770992365	7.2824427480916025	0.7633587786259541	0.15592203898050974	0.800599700149925	0.9580209895052474	
1.71040095716655E12	2.5760869565217392	-6.478260869565217	2.141304347826087	3950.18315018315	128.0	128.0	2.878157839555483	27.064290292774473	29.942448132329957	480.9906817663529	576.1397369074508	-3.969465648854962	6.305343511450381	0.15267175572519084	0.17991004497751123	0.7976011994002998	0.9565217391304347	
1.7104009571860818E12	2.652173913043478	-6.543478260869565	2.1630434782608696	3950.18315018315	128.0	128.0	2.6928773752304767	27.245892554031915	29.938769929262392	480.99082600961043	575.3099775683853	-3.9541984732824424	6.931297709923664	0.5190839694656488	0.17091454272863568	0.8035982008995503	0.9580209895052474	
1.7104009572056133E12	2.717391304347826	-6.445652173913043	1.9565217391304348	3925.274725274725	128.0	128.0	2.6909300912535303	26.408271957429882	29.099202048683413	480.99046540146657	575.8969033833628	-4.580152671755725	-0.7480916030534351	-0.33587786259541985	0.17241379310344826	0.8020989505247376	0.952023988005997	
1.710400957225145E12	2.5978260869565215	-6.510869565217391	2.108695652173913	3951.6483516483513	128.0	128.0	2.66900511610569	26.56903106797112	29.23803618407681	480.9924126854435	576.2235422400882	-4.595419847328244	10.030534351145038	1.282442748091603	0.1664167916041979	0.7961019490254873	0.9505247376311844	
1.7104009572446768E12	2.5869565217391304	-6.467391304347826	2.2065217391304346	3950.18315018315	128.0	128.0	2.6539316956915493	26.581075379976678	29.23500707566823	480.99270117195863	576.246476918039	-0.41221374045801523	7.633587786259541	0.8854961832061068	0.15442278860569714	0.8020989505247376	0.9745127436281859	
1.7104009572642085E12	2.7065217391304346	-6.304347826086956	2.0869565217391304	3947.252747252747	128.0	128.0	2.655013520123186	26.607544017737393	29.26255753786058	480.9952254289658	576.2733061639436	-3.877862595419847	6.900763358778626	0.9465648854961831	0.17091454272863568	0.800599700149925	0.9610194902548725	
1.7104009572837402E12	2.641304347826087	-6.423913043478261	2.0217391304347827	3951.6483516483513	128.0	128.0	2.669654210764672	26.618650748568864	29.288304959333537	480.99652361828373	576.2845571380326	-7.480916030534351	8.900763358778626	0.8549618320610687	0.1664167916041979	0.8035982008995503	0.9580209895052474	
1.710400957303272E12	2.5869565217391304	-6.608695652173913	2.152173913043478	3945.7875457875457	128.0	128.0	2.6835015634896235	26.627665952165838	29.311167515655463	480.99104237449677	576.2941493146598	-5.923664122137405	7.343511450381679	0.6412213740458015	0.17241379310344826	0.8125937031484257	0.9640179910044977	
1.7104009573228037E12	2.630434782608696	-6.5978260869565215	2.0760869565217392	3950.18315018315	128.0	128.0	2.7004501462519346	26.669352253598245	29.36980239985018	480.99176359078456	576.3274695071542	-4.030534351145038	6.473282442748092	0.7175572519083969	0.16941529235382308	0.8020989505247376	0.9700149925037481	
1.7104009573423354E12	2.6739130434782608	-6.489130434782608	2.032608695652174	3950.18315018315	128.0	128.0	2.715451445037299	26.71017309548534	29.42562454052264	480.9885902391184	576.3434083871136	-3.32824427480916	7.923664122137405	1.3893129770992365	0.15442278860569714	0.8050974512743628	0.9670164917541229	
1.7104009573618672E12	2.5978260869565215	-6.445652173913043	2.032608695652174	3925.274725274725	128.0	128.0	2.753026813629486	26.81871614679291	29.571742960422394	480.990970252868	576.4108421100191	-2.946564885496183	6.900763358778626	0.5343511450381679	0.1634182908545727	0.8065967016491754	0.9730134932533733	
1.710400957381399E12	2.608695652173913	-6.434782608695652	2.032608695652174	3951.6483516483513	128.0	128.0	2.770624491050779	26.871220692541684	29.641845183592462	480.9882296309745	576.4280791792964	-3.0381679389312977	6.824427480916031	0.41221374045801523	0.1649175412293853	0.8020989505247376	0.95952023988006	
1.7104009574009307E12	2.5652173913043477	-6.467391304347826	2.0869565217391304	3950.18315018315	128.0	128.0	2.7771875592693758	26.918820967533705	29.69600852680308	480.99270117195863	576.4212276245628	-3.7709923664122136	7.587786259541985	0.3053435114503817	0.17991004497751123	0.7901049475262368	0.9700149925037481	
1.7104009574204624E12	2.641304347826087	-6.456521739130435	2.043478260869565	3950.18315018315	128.0	128.0	2.754397124576226	26.909228790906525	29.66362591548275	480.98931145540615	576.3845898371446	-3.3740458015267176	6.091603053435114	0.732824427480916	0.1619190404797601	0.7871064467766117	0.9670164917541229	
1.710400957439994E12	2.684782608695652	-6.445652173913043	2.010869565217391	3951.6483516483513	128.0	128.0	2.7138647692042315	26.790011738540144	29.503876507744376	480.99270117195863	576.3023711803403	-2.4885496183206106	7.435114503816793	0.8244274809160305	0.16941529235382308	0.8020989505247376	0.9640179910044977	
1.7104009574595256E12	2.652173913043478	-6.456521739130435	2.152173913043478	3951.6483516483513	128.0	128.0	2.6862421853831036	26.68247839003544	29.368720575418543	480.9888787256335	576.2634255008013	-2.6412213740458013	7.190839694656488	0.9923664122137404	0.15892053973013492	0.8035982008995503	0.9655172413793103	
1.7104009574790574E12	2.619565217391304	-6.521739130434782	2.130434782608696	3950.18315018315	128.0	128.0	2.6615044667130077	26.62059803254581	29.28210249925882	480.99147510426945	576.2433756880016	-3.465648854961832	7.32824427480916	0.8549618320610687	0.1619190404797601	0.8095952023988006	0.9670164917541229	
1.710400957498589E12	2.641304347826087	-6.565217391304348	1.9130434782608696	3950.18315018315	128.0	128.0	2.6583311150468725	26.574223825242978	29.23255494028985	480.9899605500651	576.2296725785343	-2.7022900763358777	2.687022900763359	0.38167938931297707	0.17241379310344826	0.8050974512743628	0.9700149925037481	
1.7104009575181208E12	2.5978260869565215	-6.532608695652174	2.152173913043478	3928.205128205128	128.0	128.0	2.650541979139087	26.567732878653153	29.21827485779224	480.99075388798167	576.2365962548968	-0.9007633587786259	9.725190839694656	0.8702290076335878	0.15892053973013492	0.800599700149925	0.9655172413793103	
1.7104009575376526E12	2.608695652173913	-6.434782608695652	2.1630434782608696	3951.6483516483513	128.0	128.0	2.664822061636694	26.588143299596705	29.2529653612334	480.9862102253688	576.266094001066	-2.946564885496183	4.6106870229007635	0.366412213740458	0.17241379310344826	0.8095952023988006	0.9670164917541229	
1.7104009575571843E12	2.684782608695652	-6.423913043478261	1.9782608695652173	3950.18315018315	128.0	128.0	2.6708802784538603	26.591605137777943	29.262485416231804	480.9898163068076	576.2733782855723	-2.900763358778626	6.412213740458015	0.9312977099236641	0.16941529235382308	0.8020989505247376	0.9700149925037481	
1.710400957576716E12	2.5760869565217392	-6.445652173913043	2.1847826086956523	3948.7179487179483	128.0	128.0	2.6712408865977393	26.614684058986196	29.285924945583936	480.9889508472623	576.2627042845136	-3.129770992366412	7.1603053435114505	0.8549618320610687	0.16941529235382308	0.8020989505247376	0.9670164917541229	
1.7104009575962478E12	2.6630434782608696	-6.510869565217391	2.119565217391304	3950.18315018315	128.0	128.0	2.672755440802031	26.625141695158685	29.297897135960717	480.9885181174896	576.2654449064071	-3.5114503816793894	5.862595419847328	0.7175572519083969	0.1664167916041979	0.8110944527736131	0.9655172413793103	
1.7104009576157795E12	2.6630434782608696	-6.532608695652174	2.0760869565217392	3950.18315018315	128.0	128.0	2.676794252013475	26.618794991826416	29.295589243839892	480.9924848070723	576.2533284727728	-1.7251908396946565	6.763358778625954	0.8549618320610687	0.1634182908545727	0.8035982008995503	0.9730134932533733	
1.7104009576353113E12	2.6739130434782608	-6.478260869565217	2.0869565217391304	3950.18315018315	128.0	128.0	2.6748469680365288	26.596148800390818	29.270995768427348	480.98902296889105	576.2356586737226	-1.3435114503816794	6.3969465648854955	0.42748091603053434	0.18590704647676162	0.8065967016491754	0.9730134932533733	
1.710400957654843E12	2.6630434782608696	-6.434782608695652	2.0978260869565215	3950.18315018315	128.0	128.0	2.679534873906955	26.589729975429773	29.26926484933673	480.98476779279326	576.2399859714492	-1.6946564885496183	6.549618320610687	0.4427480916030534	0.15142428785607195	0.800599700149925	0.9685157421289355	
1.7104009576743745E12	2.5869565217391304	-6.423913043478261	2.141304347826087	3926.7399267399264	128.0	128.0	2.661720831599335	26.575954744333597	29.237675575932933	480.98534476582347	576.2337835113744	-3.83206106870229	7.480916030534351	0.5343511450381679	0.1649175412293853	0.7976011994002998	0.9640179910044977	
1.7104009576939062E12	2.5652173913043477	-6.5	2.043478260869565	3951.6483516483513	128.0	128.0	2.658186871789321	26.576531717363803	29.234718589153125	480.9870035632853	576.2266434701256	-4.244274809160305	4.641221374045801	0.22900763358778625	0.1634182908545727	0.8065967016491754	0.9610194902548725	
1.710400957713438E12	2.641304347826087	-6.521739130434782	2.043478260869565	3947.252747252747	128.0	128.0	2.6628747776597477	26.558501310169852	29.2213760878296	480.9846956711645	576.2557806081511	-2.8396946564885495	6.3969465648854955	0.5801526717557252	0.17241379310344826	0.8050974512743628	0.9640179910044977	
1.7104009577329697E12	2.6739130434782608	-6.5	2.130434782608696	3948.7179487179483	128.0	128.0	2.6539316956915493	26.56455952698702	29.21849122267857	480.9844071846494	576.2540496890605	-2.183206106870229	8.076335877862595	1.114503816793893	0.17991004497751123	0.8095952023988006	0.9640179910044977	
1.7104009577525015E12	2.7282608695652173	-6.5	2.141304347826087	3950.18315018315	128.0	128.0	2.65717716898646	26.571843811493373	29.229020980479834	480.98786902283064	576.2531842295151	-3.312977099236641	7.572519083969465	1.4809160305343512	0.17841079460269865	0.7961019490254873	0.9760119940029984	
1.7104009577720332E12	2.652173913043478	-6.5	2.141304347826087	3951.6483516483513	128.0	128.0	2.656167466183599	26.554895228731063	29.211062694914663	480.9978218076017	576.2626321628848	-2.5343511450381677	7.480916030534351	1.129770992366412	0.17091454272863568	0.7961019490254873	0.9580209895052474	
1.710400957791565E12	2.641304347826087	-6.5	2.119565217391304	3948.7179487179483	128.0	128.0	2.656455952698702	26.56181890509354	29.21827485779224	480.9956581587384	576.2508042157656	-2.549618320610687	6.595419847328244	0.9312977099236641	0.17691154422788605	0.7841079460269865	0.9640179910044977	
1.7104009578110967E12	2.5760869565217392	-6.489130434782608	2.0978260869565215	3950.18315018315	128.0	128.0	2.6712408865977393	26.55633766130658	29.22757854790432	480.99710059131394	576.2673921903839	-1.9236641221374045	7.114503816793893	0.42748091603053434	0.1634182908545727	0.800599700149925	0.9550224887556221	
1.7104009578306284E12	2.532608695652174	-6.445652173913043	2.0978260869565215	3928.205128205128	128.0	128.0	2.67311604894591	26.581652353006884	29.254768401952795	480.9960908885111	576.2664546092099	-1.6335877862595418	5.938931297709924	0.2900763358778626	0.1664167916041979	0.7961019490254873	0.9580209895052474	
1.7104009578501602E12	2.6956521739130435	-6.456521739130435	2.141304347826087	3953.113553113553	128.0	128.0	2.6896319019355657	26.628026560309717	29.317658462245284	481.0017163755556	576.2348653358061	-1.7099236641221374	6.931297709923664	0.6717557251908397	0.1664167916041979	0.8035982008995503	0.9760119940029984	
1.710400957869692E12	2.684782608695652	-6.5	2.141304347826087	3951.6483516483513	128.0	128.0	2.7250436216644793	26.578406879711974	29.303450501376453	480.99955272669234	576.2529678646288	-2.427480916030534	7.435114503816793	1.3282442748091603	0.1649175412293853	0.8050974512743628	0.9565217391304347	
1.7104009578892236E12	2.652173913043478	-6.467391304347826	2.043478260869565	3950.18315018315	128.0	128.0	2.664533575121591	26.543427889755712	29.207961464877304	480.99883151040456	576.2556363648936	-1.4809160305343512	7.648854961832061	1.297709923664122	0.17241379310344826	0.8050974512743628	0.9565217391304347	
1.7104009579087551E12	2.5760869565217392	-6.4021739130434785	2.0543478260869565	3950.18315018315	128.0	128.0	2.6626584127734203	26.534989659188945	29.197648071962366	480.9997690915786	576.2407071877369	-1.2061068702290076	7.755725190839694	1.282442748091603	0.1619190404797601	0.7976011994002998	0.9700149925037481	
1.7104009579282869E12	2.608695652173913	-6.423913043478261	2.108695652173913	3951.6483516483513	128.0	128.0	2.6615044667130077	26.513064684041105	29.174569150754113	480.9978218076017	576.2769843670112	-1.282442748091603	7.267175572519084	1.0534351145038168	0.17991004497751123	0.8020989505247376	0.9670164917541229	
1.7104009579478186E12	2.5978260869565215	-6.467391304347826	2.0869565217391304	3950.18315018315	128.0	128.0	3.0165592451762255	27.404415894081104	30.42097513925733	480.9971727129427	575.9850360137267	-2.1374045801526718	6.488549618320611	0.6870229007633587	0.1664167916041979	0.800599700149925	0.9730134932533733	
1.7104009579673503E12	2.717391304347826	-6.521739130434782	2.152173913043478	3950.18315018315	128.0	128.0	2.7410546232527047	27.4792060231216	30.220260646374303	481.0020048620707	575.3278637323217	-1.450381679389313	6.3969465648854955	0.7175572519083969	0.17691154422788605	0.8050974512743628	0.9490254872563718	
1.710400957986882E12	2.75	-6.445652173913043	2.010869565217391	3926.7399267399264	128.0	128.0	2.7166775127264873	26.429259351403637	29.145936864130125	481.0002739429801	576.0696346842808	-1.2519083969465647	0.8854961832061068	-0.030534351145038167	0.14992503748125938	0.7976011994002998	0.9565217391304347	
1.7104009580064138E12	2.5543478260869565	-6.5	2.119565217391304	3950.18315018315	128.0	128.0	2.718119945302003	26.517536225025207	29.23565617032721	480.9997690915786	576.2501551211066	-2.4580152671755724	10.885496183206106	0.9770992366412213	0.17091454272863568	0.7961019490254873	0.9655172413793103	
1.7104009580259456E12	2.510869565217391	-6.413043478260869	2.3152173913043477	3951.6483516483513	128.0	128.0	2.6886943207614804	26.581003258347902	29.269697579109383	480.9977496859729	576.2869371517822	1.099236641221374	8.458015267175572	0.9923664122137404	0.1649175412293853	0.8050974512743628	0.9745127436281859	
1.7104009580454773E12	2.684782608695652	-6.293478260869565	2.2282608695652173	3950.18315018315	128.0	128.0	2.705138052122361	26.575594136189718	29.28073218831208	480.9966678615413	576.2942935579174	-1.5267175572519083	6.99236641221374	1.2213740458015268	0.1649175412293853	0.7976011994002998	0.9565217391304347	
1.710400958065009E12	2.6956521739130435	-6.434782608695652	2.0978260869565215	3950.18315018315	128.0	128.0	2.6962670917829388	26.60516400398779	29.30143109577073	480.99234056381476	576.29472628769	-5.145038167938931	6.152671755725191	0.732824427480916	0.1619190404797601	0.7976011994002998	0.9670164917541229	
1.7104009580845408E12	2.5869565217391304	-6.565217391304348	2.1956521739130435	3950.18315018315	128.0	128.0	2.7293709193910267	26.617641045766003	29.34701196515703	480.991619347527	576.3185264251861	-3.7251908396946565	6.8396946564885495	-0.04580152671755725	0.17091454272863568	0.800599700149925	0.9655172413793103	
1.7104009581040725E12	2.684782608695652	-6.543478260869565	2.1847826086956523	3950.18315018315	128.0	128.0	2.732977000829816	26.66257282049332	29.395549821323137	480.99356663150394	576.3346816700318	-2.213740458015267	6.3206106870229	0.42748091603053434	0.1649175412293853	0.7976011994002998	0.952023988005997	
1.7104009581236042E12	2.684782608695652	-6.456521739130435	2.130434782608696	3950.18315018315	128.0	128.0	2.7768990727542726	26.721279826316817	29.49817889907109	480.98967206355	576.366775794837	-2.183206106870229	7.083969465648854	0.6717557251908397	0.17841079460269865	0.8035982008995503	0.9550224887556221	
1.7104009581431357E12	2.652173913043478	-6.434782608695652	2.0978260869565215	3925.274725274725	128.0	128.0	2.786923979154108	26.7767413588454	29.563665337999506	480.99284541521615	576.4033414606264	-1.9541984732824427	6.748091603053435	0.9618320610687022	0.17241379310344826	0.7976011994002998	0.9565217391304347	
1.7104009581626675E12	2.630434782608696	-6.423913043478261	2.0869565217391304	3948.7179487179483	128.0	128.0	2.815195657634218	26.88001953125233	29.695215188886547	480.99270117195863	576.4337767879697	-1.7709923664122136	7.175572519083969	0.6870229007633587	0.17841079460269865	0.7961019490254873	0.9550224887556221	
1.7104009581821992E12	2.630434782608696	-6.467391304347826	2.1739130434782608	3950.18315018315	128.0	128.0	2.810940481536446	26.906127560869166	29.71706804240561	480.9959466452535	576.4072360285802	-2.33587786259542	7.267175572519084	1.0229007633587786	0.17991004497751123	0.8050974512743628	0.952023988005997	
1.710400958201731E12	2.6739130434782608	-6.489130434782608	2.130434782608696	3950.18315018315	128.0	128.0	2.7831736544577668	26.923076143631476	29.706249798089242	480.9981102941168	576.3662709434356	-2.396946564885496	6.763358778625954	1.1450381679389312	0.1634182908545727	0.7961019490254873	0.9760119940029984	
1.7104009582212627E12	2.641304347826087	-6.5	2.1630434782608696	3923.8095238095234	128.0	128.0	2.744083731661288	26.807465172703886	29.551548904365173	481.00070667275276	576.2939329497734	-2.33587786259542	6.7328244274809155	1.2213740458015268	0.17391304347826086	0.8140929535232384	0.9475262368815592	
1.7104009582407944E12	2.6956521739130435	-6.521739130434782	2.1630434782608696	3951.6483516483513	128.0	128.0	2.7107635391668725	26.695676648101408	29.40644018726828	480.9989036320333	576.2527514997425	-2.427480916030534	7.022900763358779	1.5419847328244274	0.1634182908545727	0.8065967016491754	0.9655172413793103	
1.7104009582603262E12	2.6956521739130435	-6.478260869565217	2.1956521739130435	3950.18315018315	128.0	128.0	2.6851603609514667	26.6105010045172	29.295661365468668	480.9997690915786	576.2312592543673	-1.9694656488549618	7.572519083969465	1.7709923664122136	0.15442278860569714	0.8095952023988006	0.9700149925037481	
1.710400958279858E12	2.7282608695652173	-6.5	2.119565217391304	3951.6483516483513	128.0	128.0	2.668932994476914	26.57761354179544	29.246546536272355	480.9990478752909	576.2290234838753	-2.2748091603053435	4.290076335877862	1.0229007633587786	0.17691154422788605	0.8095952023988006	0.9565217391304347	
1.7104009582993896E12	2.608695652173913	-6.445652173913043	2.25	3928.205128205128	128.0	128.0	2.6578983852742177	26.578406879711974	29.236305264986193	481.00121152415414	576.2446738773197	0.3053435114503817	8.778625954198473	1.5419847328244274	0.1649175412293853	0.8020989505247376	0.9670164917541229	
1.7104009583189214E12	2.641304347826087	-6.326086956521739	2.1739130434782608	3950.18315018315	128.0	128.0	2.671385129855291	26.579055974370956	29.250441104226248	481.0013557674117	576.2452508503499	-1.4351145038167938	7.877862595419847	1.0687022900763359	0.17241379310344826	0.8050974512743628	0.952023988005997	
1.7104009583384531E12	2.630434782608696	-6.434782608695652	2.1956521739130435	3951.6483516483513	128.0	128.0	2.68407853651983	26.61511678875885	29.29919532527868	481.0049618488505	576.2466932829253	-2.396946564885496	7.801526717557252	0.9312977099236641	0.17391304347826086	0.8110944527736131	0.9610194902548725	
1.7104009583579849E12	2.652173913043478	-6.5	2.2391304347826084	3950.18315018315	128.0	128.0	2.6953295106088535	26.62817080356727	29.323500314176123	481.0061879165397	576.2415726472823	-3.633587786259542	7.343511450381679	0.916030534351145	0.17841079460269865	0.8035982008995503	0.9655172413793103	
1.7104009583775164E12	2.652173913043478	-6.554347826086956	2.217391304347826	3951.6483516483513	128.0	128.0	2.701604092312347	26.63156052011973	29.33316461243208	481.0031588081311	576.2244076996336	-2.900763358778626	7.9541984732824424	1.2671755725190839	0.17091454272863568	0.8065967016491754	0.9655172413793103	
1.710400958397048E12	2.6739130434782608	-6.532608695652174	2.2282608695652173	3950.18315018315	128.0	128.0	2.70138772742602	26.607976747510047	29.309364474936068	480.9996248483211	576.2365962548968	-1.66412213740458	7.587786259541985	1.2213740458015268	0.1664167916041979	0.793103448275862	0.9760119940029984	
1.7104009584165798E12	2.5760869565217392	-6.478260869565217	2.260869565217391	3950.18315018315	128.0	128.0	2.682275495800435	26.603577328154724	29.28585282395516	481.0037357811613	576.2302495515645	-1.5725190839694656	7.709923664122137	1.2671755725190839	0.17691154422788605	0.8020989505247376	0.9640179910044977	
1.7104009584361116E12	2.5869565217391304	-6.4021739130434785	2.2391304347826084	3950.18315018315	128.0	128.0	2.6762894006120446	26.59254271895203	29.268832119564074	481.00265395672966	576.2223882940278	-1.9236641221374045	6.7328244274809155	1.0687022900763359	0.16941529235382308	0.8095952023988006	0.9700149925037481	
1.7104009584556433E12	2.619565217391304	-6.423913043478261	2.130434782608696	3926.7399267399264	128.0	128.0	2.6742699950063225	26.59730274645123	29.271572741457554	480.9963793750262	576.2153203744078	-2.3664122137404577	6.6106870229007635	1.2061068702290076	0.17241379310344826	0.8095952023988006	0.952023988005997	
1.710400958475175E12	2.619565217391304	-6.423913043478261	2.1847826086956523	3951.6483516483513	128.0	128.0	2.655734736410944	26.589297245657118	29.245031982068063	481.00193274044193	576.232341078799	-1.7709923664122136	7.114503816793893	1.5267175572519083	0.1634182908545727	0.793103448275862	0.9685157421289355	
1.7104009584947068E12	2.6739130434782608	-6.467391304347826	2.2065217391304346	3950.18315018315	128.0	128.0	2.6501092493664324	26.602351260465536	29.25246050983197	481.0021491053283	576.2224604156567	-1.5725190839694656	7.3893129770992365	1.3587786259541985	0.16941529235382308	0.8050974512743628	0.9670164917541229	
1.7104009585142385E12	2.5978260869565215	-6.445652173913043	2.217391304347826	3950.18315018315	128.0	128.0	2.656383831069926	26.579560825772386	29.235944656842314	481.0038800244189	576.2187100909604	-1.4809160305343512	7.450381679389313	1.1603053435114503	0.16941529235382308	0.7976011994002998	0.9640179910044977	
1.7104009585337703E12	2.630434782608696	-6.467391304347826	2.1956521739130435	3951.6483516483513	128.0	128.0	2.656167466183599	26.572637149409907	29.228804615593507	480.9990478752909	576.2133009688022	-2.610687022900763	6.33587786259542	1.0229007633587786	0.17091454272863568	0.800599700149925	0.9475262368815592	
1.710400958553302E12	2.608695652173913	-6.5	2.2282608695652173	3950.18315018315	128.0	128.0	2.653282601032567	26.576820203878906	29.230102804911475	481.00539457862317	576.2094785224771	-2.0610687022900764	7.419847328244274	1.0076335877862594	0.16941529235382308	0.7901049475262368	0.9565217391304347	
1.7104009585728337E12	2.6630434782608696	-6.467391304347826	2.1956521739130435	3950.18315018315	128.0	128.0	2.6630190209172993	26.601630044177778	29.264649065095078	481.00539457862317	576.2176282665287	-2.0763358778625953	7.312977099236641	1.114503816793893	0.1664167916041979	0.793103448275862	0.9550224887556221	
1.7104009585923655E12	2.641304347826087	-6.445652173913043	2.2282608695652173	3950.18315018315	128.0	128.0	2.6804724550810404	26.66192372583434	29.34239618091538	481.0088564168044	576.2057281977807	-2.16793893129771	7.969465648854961	1.2519083969465647	0.15742128935532235	0.8050974512743628	0.9670164917541229	
1.710400958611897E12	2.619565217391304	-6.423913043478261	2.217391304347826	3926.7399267399264	128.0	128.0	2.7148023503783167	26.629252627998905	29.344054978377223	481.00936126820585	576.2112094415677	-2.3206106870229006	7.816793893129771	1.2213740458015268	0.1619190404797601	0.8050974512743628	0.9700149925037481	
1.7104009586314287E12	2.5543478260869565	-6.445652173913043	2.2391304347826084	3953.113553113553	128.0	128.0	2.665543277924452	26.59391302989877	29.25945630782322	481.00964975472095	576.2043578868339	-3.0381679389312977	7.32824427480916	1.099236641221374	0.17391304347826086	0.7961019490254873	0.9655172413793103	
1.7104009586509604E12	2.5217391304347827	-6.445652173913043	2.25	3950.18315018315	128.0	128.0	2.6628747776597477	26.57638747410625	29.239262251766	481.00734186260013	576.2035645489174	-2.900763358778626	6.717557251908397	0.8854961832061068	0.17241379310344826	0.8050974512743628	0.9640179910044977	
1.7104009586704922E12	2.5978260869565215	-6.5	2.217391304347826	3950.18315018315	128.0	128.0	2.660422642281371	26.56333345929783	29.223756101579202	481.00452911907786	576.2598194193625	-2.9923664122137406	5.755725190839694	0.7175572519083969	0.16941529235382308	0.8020989505247376	0.9640179910044977	
1.710400958690024E12	2.652173913043478	-6.510869565217391	2.2391304347826084	3951.6483516483513	128.0	128.0	2.8744796364879175	27.027219775583717	29.901699412071636	481.00481760559296	576.2109930766813	-2.1374045801526718	6.412213740458015	0.8244274809160305	0.1649175412293853	0.8200899550224887	0.9565217391304347	
1.7104009587095557E12	2.7065217391304346	-6.478260869565217	2.260869565217391	3951.6483516483513	128.0	128.0	2.6077738532750434	27.295656477887213	29.903430331162255	481.0062600381685	575.412678767762	-1.5877862595419847	5.175572519083969	0.9312977099236641	0.1619190404797601	0.7946026986506747	0.9460269865067465	
1.7104009587290874E12	2.608695652173913	-6.380434782608695	2.1956521739130435	3950.18315018315	128.0	128.0	2.627174571415731	26.501380980179427	29.12855555159516	481.0109479440389	575.8665401776482	-1.0381679389312977	6.748091603053435	0.9770992366412213	0.15892053973013492	0.8110944527736131	0.9610194902548725	
1.7104009587486191E12	2.608695652173913	-6.391304347826087	2.0543478260869565	3950.18315018315	128.0	128.0	2.6950410240937503	26.56903106797112	29.264072092064872	481.0115249170691	576.2241192131185	-6.2748091603053435	6.473282442748092	-0.366412213740458	0.15892053973013492	0.7886056971514243	0.9685157421289355	
1.710400958768151E12	2.467391304347826	-6.413043478260869	2.5217391304347827	3925.274725274725	128.0	128.0	2.6697984540222235	26.61612649156171	29.285924945583936	481.0141934173338	576.2386877821313	-1.9694656488549618	11.343511450381678	0.3969465648854962	0.16941529235382308	0.8020989505247376	0.9415292353823088	
1.7104009587876826E12	2.7282608695652173	-6.369565217391304	2.2065217391304346	3951.6483516483513	128.0	128.0	2.669654210764672	26.639349656027516	29.30900386679219	481.00121152415414	576.2371011062982	-3.3893129770992365	6.3206106870229	1.66412213740458	0.17091454272863568	0.8035982008995503	0.9550224887556221	
1.7104009588072144E12	2.6630434782608696	-6.456521739130435	2.1739130434782608	3951.6483516483513	128.0	128.0	2.6851603609514667	26.685579620072797	29.370739981024265	480.99955272669234	576.2414284040246	-4.442748091603053	7.343511450381679	1.2671755725190839	0.17391304347826086	0.8140929535232384	0.9610194902548725	
1.710400958826746E12	2.5543478260869565	-6.619565217391304	2.2282608695652173	3948.7179487179483	128.0	128.0	2.6930216184880282	26.68449779564116	29.37751941412919	481.00012969972255	576.2456835801224	-5.816793893129771	7.557251908396946	0.7633587786259541	0.15592203898050974	0.8035982008995503	0.9655172413793103	
1.7104009588462776E12	2.619565217391304	-6.608695652173913	2.282608695652174	3950.18315018315	128.0	128.0	2.713287796174025	26.72921320548215	29.442501001656176	481.0010672808966	576.2663103659523	-3.2519083969465647	6.671755725190839	0.9007633587786259	0.1619190404797601	0.8020989505247376	0.9670164917541229	
1.7104009588658093E12	2.641304347826087	-6.478260869565217	2.25	3950.18315018315	128.0	128.0	2.7322557845420583	26.78337654869277	29.51563233323483	480.9946484559356	576.2838359217449	-2.4427480916030535	7.083969465648854	1.2671755725190839	0.1649175412293853	0.8095952023988006	0.9565217391304347	
1.710400958885341E12	2.630434782608696	-6.391304347826087	2.1630434782608696	3950.18315018315	128.0	128.0	2.7724275317701736	26.848430257848534	29.620857789618707	480.99738907782904	576.3315083183656	-2.7938931297709924	7.557251908396946	1.5419847328244274	0.17391304347826086	0.7961019490254873	0.9580209895052474	
1.7104009589048728E12	2.5978260869565215	-6.33695652173913	2.0978260869565215	3950.18315018315	128.0	128.0	2.7846882086620584	26.914205183292054	29.698893391954112	481.0035915379038	576.3454277927194	-2.687022900763359	6.824427480916031	1.2366412213740459	0.17241379310344826	0.8020989505247376	0.952023988005997	
1.7104009589244045E12	2.5543478260869565	-6.434782608695652	2.293478260869565	3926.7399267399264	128.0	128.0	2.7797118162765284	26.962743039458164	29.742454855734692	480.99940848343476	576.3366289540087	-3.6488549618320607	8.854961832061068	0.916030534351145	0.17391304347826086	0.8065967016491754	0.9685157421289355	
1.7104009589439363E12	2.630434782608696	-6.5	2.293478260869565	3951.6483516483513	128.0	128.0	2.7601668548782894	26.94305383480237	29.70322068968066	481.0016442539268	576.2954475039778	-4.152671755725191	7.145038167938931	0.9923664122137404	0.15892053973013492	0.8065967016491754	0.9730134932533733	
1.710400958963468E12	2.7065217391304346	-6.489130434782608	2.2282608695652173	3950.18315018315	128.0	128.0	2.714658107120765	26.883553491062344	29.59821159818311	481.00424063256276	576.2525351348562	-3.679389312977099	6.946564885496183	1.0381679389312977	0.17241379310344826	0.8020989505247376	0.9640179910044977	
1.7104009589829998E12	2.630434782608696	-6.489130434782608	2.2391304347826084	3950.18315018315	128.0	128.0	2.6705196703099814	26.746089666615685	29.416609336925667	481.0040963893052	576.2101997387648	-3.7709923664122136	8.015267175572518	0.7633587786259541	0.15742128935532235	0.7901049475262368	0.9565217391304347	
1.7104009590025315E12	2.619565217391304	-6.5	2.1956521739130435	3923.8095238095234	128.0	128.0	2.645132856980903	26.69820090510856	29.343333762089465	481.00575518676703	576.1989487646757	-3.8931297709923665	6.824427480916031	1.0687022900763359	0.16941529235382308	0.7976011994002998	0.95952023988006	
1.7104009590220632E12	2.630434782608696	-6.510869565217391	2.2391304347826084	3951.6483516483513	128.0	128.0	2.6332327882328976	26.66480859098537	29.29804137921827	481.00662064631234	576.1994536160772	-3.5725190839694654	7.129770992366412	0.9007633587786259	0.16941529235382308	0.7976011994002998	0.9670164917541229	
1.710400959041595E12	2.5869565217391304	-6.380434782608695	2.369565217391304	3950.18315018315	128.0	128.0	2.6298430716804355	26.632714466180143	29.26255753786058	481.00539457862317	576.205295468008	-1.816793893129771	8.473282442748092	1.450381679389313	0.1649175412293853	0.8020989505247376	0.952023988005997	
1.7104009590611267E12	2.717391304347826	-6.413043478260869	2.0543478260869565	3944.322344322344	128.0	128.0	2.6467195328139703	26.666467388447213	29.313186921261185	481.0058273083958	576.2083245764167	-5.114503816793893	4.748091603053435	1.3282442748091603	0.17241379310344826	0.8095952023988006	0.9640179910044977	
1.7104009590806582E12	2.5	-6.489130434782608	2.4239130434782608	3925.274725274725	128.0	128.0	2.6524171414872577	26.68384870098218	29.336265842469437	481.00690913282745	576.2185658477027	-3.6030534351145036	12.015267175572518	1.7404580152671756	0.1664167916041979	0.800599700149925	0.9475262368815592	
1.71040095910019E12	2.641304347826087	-6.521739130434782	2.3043478260869565	3951.6483516483513	128.0	128.0	2.663740237205057	26.67865594371032	29.34239618091538	481.00481760559296	576.2285186324739	-3.9083969465648853	6.3206106870229	0.9007633587786259	0.1634182908545727	0.793103448275862	0.9685157421289355	
1.7104009591197217E12	2.6739130434782608	-6.510869565217391	2.1956521739130435	3950.18315018315	128.0	128.0	2.665543277924452	26.6927196613216	29.358262939246053	481.00900066006193	576.2367404981543	-2.2748091603053435	8.335877862595419	1.2366412213740459	0.17241379310344826	0.7871064467766117	0.9700149925037481	
1.7104009591392534E12	2.5869565217391304	-6.467391304347826	2.25	3948.7179487179483	128.0	128.0	2.664100845348936	26.675843200188066	29.339944045537003	481.00964975472095	576.2264271052393	-2.6717557251908395	8.717557251908397	1.8015267175572518	0.1619190404797601	0.8125937031484257	0.9640179910044977	
1.7104009591587852E12	2.5978260869565215	-6.467391304347826	2.130434782608696	3951.6483516483513	128.0	128.0	2.648883181677244	26.655937630645948	29.304820812323193	481.0069812544562	576.2293840920191	-3.465648854961832	6.870229007633587	1.5877862595419847	0.1634182908545727	0.8035982008995503	0.9610194902548725	
1.710400959178317E12	2.543478260869565	-6.391304347826087	2.260869565217391	3950.18315018315	128.0	128.0	2.654652911979307	26.650961238260418	29.305614150239727	481.0055388218807	576.2265713484969	-2.4885496183206106	8.854961832061068	1.4351145038167938	0.17241379310344826	0.8020989505247376	0.95952023988006	
1.7104009591978486E12	2.5543478260869565	-6.413043478260869	2.2717391304347827	3950.18315018315	128.0	128.0	2.637560085959445	26.628459290082372	29.266019376041818	481.002870321616	576.2114979280827	-2.8091603053435112	7.0534351145038165	1.2519083969465647	0.1649175412293853	0.8095952023988006	0.9670164917541229	
1.7104009592173804E12	2.5760869565217392	-6.434782608695652	2.1847826086956523	3951.6483516483513	128.0	128.0	2.642752843231302	26.62456472212848	29.267317565359782	481.0061157949109	576.2187100909604	-3.4351145038167936	6.549618320610687	1.1755725190839694	0.16941529235382308	0.8095952023988006	0.952023988005997	
1.710400959236912E12	2.5869565217391304	-6.467391304347826	2.1847826086956523	3925.274725274725	128.0	128.0	2.6412382890270103	26.633219317581574	29.274457606608586	481.00546670025193	576.2232537535732	-3.2061068702290076	7.969465648854961	1.282442748091603	0.15742128935532235	0.7901049475262368	0.952023988005997	
1.7104009592564438E12	2.619565217391304	-6.467391304347826	2.1739130434782608	3951.6483516483513	128.0	128.0	2.634458855922086	26.63963814254262	29.274096998464707	481.0050339704793	576.2125797525143	-3.297709923664122	6.717557251908397	1.0381679389312977	0.17091454272863568	0.8110944527736131	0.9655172413793103	
1.7104009592759756E12	2.641304347826087	-6.467391304347826	2.3152173913043477	3950.18315018315	128.0	128.0	2.637920694103324	26.63293083106647	29.270851525169796	481.00864005191806	576.201761508198	-3.6030534351145036	7.877862595419847	1.1450381679389312	0.1649175412293853	0.8020989505247376	0.95952023988006	
1.7104009592955073E12	2.641304347826087	-6.467391304347826	2.2065217391304346	3947.252747252747	128.0	128.0	2.6299151933092113	26.679809889770734	29.309725083079947	481.00878429517564	576.2169070502409	-3.8625954198473282	6.809160305343511	1.4198473282442747	0.15142428785607195	0.8290854572713643	0.9655172413793103	
1.7104009593150388E12	2.5760869565217392	-6.445652173913043	2.1630434782608696	3950.18315018315	128.0	128.0	2.649532276336226	26.712480987606167	29.362013263942394	481.00791883563033	576.1961360211535	-3.709923664122137	6.961832061068702	0.7022900763358778	0.15892053973013492	0.8110944527736131	0.9655172413793103	
1.7104009593345706E12	2.532608695652174	-6.445652173913043	2.2065217391304346	3950.18315018315	128.0	128.0	2.679174265763076	26.719044055824764	29.39821832158784	481.002870321616	576.2005354405088	-3.5572519083969465	7.083969465648854	0.48854961832061067	0.16941529235382308	0.8095952023988006	0.9880059970014993	
1.7104009593541023E12	2.608695652173913	-6.456521739130435	2.141304347826087	3948.7179487179483	128.0	128.0	2.6480177221319345	26.680531106058492	29.328548828190428	481.00452911907786	576.2036366705462	-4.091603053435114	5.2824427480916025	0.33587786259541985	0.1664167916041979	0.8065967016491754	0.9610194902548725	
1.710400959373634E12	2.5978260869565215	-6.434782608695652	2.2391304347826084	3950.18315018315	128.0	128.0	2.6377764508457724	26.628892019855027	29.2666684707008	481.00250971347214	576.2153924960367	-3.3740458015267176	7.480916030534351	0.42748091603053434	0.1664167916041979	0.8035982008995503	0.9790104947526237	
1.7104009593931658E12	2.6739130434782608	-6.423913043478261	2.1630434782608696	3926.7399267399264	128.0	128.0	2.637920694103324	26.624636843757255	29.26255753786058	481.00250971347214	576.2427987149714	-4.229007633587786	5.49618320610687	1.0687022900763359	0.17091454272863568	0.8110944527736131	0.9550224887556221	
1.7104009594126975E12	2.5869565217391304	-6.532608695652174	2.3260869565217392	3951.6483516483513	128.0	128.0	2.7880058035857447	27.01971912619104	29.807724929776782	480.9994806050635	576.2253452808077	-3.7862595419847325	8.320610687022901	0.9770992366412213	0.1634182908545727	0.8065967016491754	0.9655172413793103	
1.7104009594322292E12	2.652173913043478	-6.554347826086956	2.2717391304347827	3951.6483516483513	128.0	128.0	2.674053630119995	27.645879107222452	30.319932737342448	480.99645149665497	575.3903931844703	-3.5114503816793894	4.534351145038168	0.7633587786259541	0.1634182908545727	0.7886056971514243	0.9550224887556221	
1.710400959451761E12	2.510869565217391	-6.423913043478261	2.1739130434782608	3945.7875457875457	128.0	128.0	2.620972111341013	26.6084094772827	29.229381588623713	480.99500906407945	575.7936973325845	-1.5877862595419847	8.702290076335878	0.6564885496183206	0.1619190404797601	0.8050974512743628	0.9565217391304347	
1.7104009594712927E12	2.5978260869565215	-6.434782608695652	2.0869565217391304	3951.6483516483513	128.0	128.0	2.6839342932622783	26.60949130171434	29.29342559497662	480.99998545646497	576.2252010375502	-6.885496183206107	3.49618320610687	-0.7938931297709924	0.16941529235382308	0.8020989505247376	0.9640179910044977	
1.7104009594908245E12	2.4782608695652173	-6.478260869565217	2.532608695652174	3950.18315018315	128.0	128.0	2.65717716898646	26.696037256245287	29.353214425231748	481.0025818351009	576.2486405669023	-3.7404580152671754	12.839694656488549	1.3740458015267174	0.1664167916041979	0.8035982008995503	0.9685157421289355	
1.7104009595103562E12	2.717391304347826	-6.413043478260869	2.1847826086956523	3950.18315018315	128.0	128.0	2.6476571139880556	26.708947027796153	29.35660414178421	481.0022933485858	576.2801577186773	-3.801526717557252	7.145038167938931	2.3053435114503817	0.17691154422788605	0.815592203898051	0.9565217391304347	
1.710400959529888E12	2.641304347826087	-6.413043478260869	2.1956521739130435	3951.6483516483513	128.0	128.0	2.664172966977712	26.73231443551951	29.396487402497222	480.9987593887758	576.2840522866312	-4.091603053435114	9.221374045801527	2.213740458015267	0.1619190404797601	0.7976011994002998	0.9565217391304347	
1.7104009595494194E12	2.510869565217391	-6.5978260869565215	2.141304347826087	3928.205128205128	128.0	128.0	2.67037542705243	26.751715153660196	29.422090580712627	480.9978218076017	576.2827540973133	-6.687022900763359	7.770992366412213	1.083969465648855	0.1634182908545727	0.8065967016491754	0.9730134932533733	
1.7104009595689512E12	2.5652173913043477	-6.554347826086956	2.1630434782608696	3951.6483516483513	128.0	128.0	2.700233781365607	26.78445837312441	29.484692154490016	480.9954417938521	576.2870813950398	-3.5267175572519083	6.3206106870229	0.48854961832061067	0.17391304347826086	0.7886056971514243	0.9730134932533733	
1.710400959588483E12	2.5869565217391304	-6.434782608695652	2.1956521739130435	3951.6483516483513	128.0	128.0	2.7168938776128146	26.81438884906636	29.531282726679176	480.9954417938521	576.3140548842019	-2.015267175572519	7.312977099236641	0.9618320610687022	0.17241379310344826	0.8020989505247376	0.9565217391304347	
1.7104009596080146E12	2.5869565217391304	-6.434782608695652	2.1847826086956523	3947.252747252747	128.0	128.0	2.7570656248409304	26.898626911476484	29.655692536317414	480.9968842264276	576.3493223606732	-3.6488549618320607	8.030534351145038	1.4045801526717556	0.1664167916041979	0.793103448275862	0.9655172413793103	
1.7104009596275464E12	2.630434782608696	-6.423913043478261	2.010869565217391	3951.6483516483513	128.0	128.0	2.7693263017328147	26.980917689909663	29.750243991642478	480.9984709022607	576.365189119004	-3.4045801526717554	6.106870229007633	1.450381679389313	0.16941529235382308	0.7946026986506747	0.95952023988006	
1.7104009596470781E12	2.543478260869565	-6.434782608695652	2.108695652173913	3951.6483516483513	128.0	128.0	2.7587244223027736	27.03133070842394	29.790055130726714	480.9989036320333	576.3719685521089	-3.2213740458015265	8.625954198473282	1.3587786259541985	0.15742128935532235	0.8095952023988006	0.952023988005997	
1.7104009596666099E12	2.5652173913043477	-6.413043478260869	2.1847826086956523	3950.18315018315	128.0	128.0	2.7507189215086605	27.01661789615368	29.76733681766234	480.99854302388945	576.3325180211685	-3.068702290076336	7.587786259541985	0.7480916030534351	0.1619190404797601	0.8020989505247376	0.9670164917541229	
1.7104009596861416E12	2.5652173913043477	-6.423913043478261	2.25	3950.18315018315	128.0	128.0	2.6970604296994725	26.91290699397409	29.609967423673563	481.00070667275276	576.2704212987926	-3.49618320610687	7.129770992366412	0.4427480916030534	0.15442278860569714	0.8050974512743628	0.95952023988006	
1.7104009597056733E12	2.630434782608696	-6.478260869565217	2.2717391304347827	3926.7399267399264	128.0	128.0	2.6608553720540256	26.81835553864903	29.479210910703056	480.99868726714703	576.2331344167155	-5.3893129770992365	7.969465648854961	0.6412213740458015	0.17091454272863568	0.8110944527736131	0.9550224887556221	
1.710400959725205E12	2.630434782608696	-6.532608695652174	2.0978260869565215	3950.18315018315	128.0	128.0	2.629410341907781	26.74940726153937	29.378817603447153	481.00395214604765	576.2343604844046	-4.748091603053435	6.442748091603053	1.0229007633587786	0.17241379310344826	0.8095952023988006	0.9640179910044977	
1.7104009597447368E12	2.532608695652174	-6.478260869565217	2.0217391304347827	3950.18315018315	128.0	128.0	2.614481164751192	26.704547608440834	29.319028773192024	481.0044569974491	576.2300331866782	-3.3740458015267176	7.770992366412213	0.9923664122137404	0.17391304347826086	0.8065967016491754	0.9580209895052474	
1.7104009597642686E12	2.510869565217391	-6.467391304347826	2.3152173913043477	3944.322344322344	128.0	128.0	2.615058137781398	26.70526882472859	29.320326962509988	481.00777459237275	576.2419332554261	-2.8091603053435112	8.870229007633588	0.732824427480916	0.1634182908545727	0.800599700149925	0.9580209895052474	
1.7104009597838E12	2.619565217391304	-6.4021739130434785	2.032608695652174	3950.18315018315	128.0	128.0	2.617221786644672	26.712048257833516	29.329270044478186	481.00539457862317	576.2621273114834	-1.7099236641221374	4.854961832061068	0.42748091603053434	0.1649175412293853	0.8050974512743628	0.9640179910044977	
1.7104009598033318E12	2.4782608695652173	-6.478260869565217	2.1630434782608696	3950.18315018315	128.0	128.0	2.624001219749596	26.737074463018715	29.36107568276831	481.00424063256276	576.2664546092099	-3.9541984732824424	6.824427480916031	0.0916030534351145	0.15442278860569714	0.8095952023988006	0.952023988005997	
1.7104009598228635E12	2.5760869565217392	-6.467391304347826	2.3260869565217392	3950.18315018315	128.0	128.0	2.6469358977002977	26.766932817331888	29.413868715032187	481.0058994300246	576.2715031232242	-2.0610687022900764	6.65648854961832	0.3511450381679389	0.1664167916041979	0.8035982008995503	0.9580209895052474	
1.7104009598423953E12	2.717391304347826	-6.489130434782608	2.141304347826087	3950.18315018315	128.0	128.0	2.642392235087423	26.764552803582287	29.40694503866971	481.00539457862317	576.2686182580732	-3.4351145038167936	4.7328244274809155	0.061068702290076333	0.15742128935532235	0.8020989505247376	0.9565217391304347	
1.710400959861927E12	2.630434782608696	-6.434782608695652	2.2065217391304346	3926.7399267399264	128.0	128.0	2.6479456005031587	26.75950428956798	29.407449890071142	481.0094333898346	576.254193932318	-1.7404580152671756	7.32824427480916	0.5954198473282443	0.1649175412293853	0.7946026986506747	0.9745127436281859	
1.7104009598814587E12	2.5543478260869565	-6.413043478260869	2.1847826086956523	3951.6483516483513	128.0	128.0	2.643113451375181	26.746738761274667	29.38985221264985	481.01275098475827	576.2518139185684	-2.381679389312977	6.534351145038167	0.4580152671755725	0.15142428785607195	0.8065967016491754	0.9760119940029984	
1.7104009599009905E12	2.5543478260869565	-6.445652173913043	2.1739130434782608	3951.6483516483513	128.0	128.0	2.626020625355318	26.741401760745262	29.36742238610058	481.01159703869786	576.2423659851988	-4.122137404580153	5.083969465648854	0.0	0.17241379310344826	0.8020989505247376	0.9745127436281859	
1.7104009599205222E12	2.532608695652174	-6.467391304347826	2.2282608695652173	3944.322344322344	128.0	128.0	2.62205393577265	26.725390759157037	29.347444694929685	481.0115249170691	576.2407071877369	-3.3587786259541983	5.435114503816794	-0.3511450381679389	0.1619190404797601	0.7946026986506747	0.9640179910044977	
1.710400959940054E12	2.608695652173913	-6.5	2.130434782608696	3951.6483516483513	128.0	128.0	2.618519975962636	26.724958029384382	29.343478005347016	481.00748610585765	576.2363798900104	-3.633587786259542	3.297709923664122	-0.7633587786259541	0.1664167916041979	0.8035982008995503	0.9685157421289355	
1.7104009599595857E12	2.641304347826087	-6.478260869565217	2.0978260869565215	3951.6483516483513	128.0	128.0	2.6204672599395824	26.711687649689637	29.332154909629217	481.00748610585765	576.2288071189889	-3.2061068702290076	3.801526717557252	-0.6412213740458015	0.1649175412293853	0.7901049475262368	0.9565217391304347	
1.7104009599791174E12	2.641304347826087	-6.391304347826087	2.152173913043478	3951.6483516483513	128.0	128.0	2.6018598797154286	26.73130473271665	29.33316461243208	481.0058994300246	576.2355144304651	-2.351145038167939	5.267175572519084	-0.2748091603053435	0.17841079460269865	0.8110944527736131	0.9610194902548725	
1.7104009599986492E12	2.619565217391304	-6.445652173913043	2.1739130434782608	3950.18315018315	128.0	128.0	2.607845974903819	26.717745866506803	29.32559184141062	481.00864005191806	576.226859835012	-3.1755725190839694	4.7328244274809155	-0.3969465648854962	0.17691154422788605	0.8095952023988006	0.95952023988006	
1.7104009600181807E12	2.5978260869565215	-6.489130434782608	2.1739130434782608	3926.7399267399264	128.0	128.0	2.6014992715715497	26.71197613620474	29.313475407776288	481.00864005191806	576.2360192818666	-4.229007633587786	5.099236641221374	-0.564885496183206	0.1619190404797601	0.8020989505247376	0.9670164917541229	
1.7104009600377124E12	2.641304347826087	-6.478260869565217	2.141304347826087	3951.6483516483513	128.0	128.0	2.6081344614189224	26.734189597867683	29.342324059286604	481.0115249170691	576.2246961861487	-3.801526717557252	4.854961832061068	-0.3511450381679389	0.17241379310344826	0.8095952023988006	0.9565217391304347	
1.7104009600572441E12	2.619565217391304	-6.456521739130435	2.152173913043478	3950.18315018315	128.0	128.0	2.6159235973267077	26.78186199448848	29.397785591815186	481.00936126820585	576.2213064695962	-3.4045801526717554	4.931297709923664	-0.10687022900763359	0.15592203898050974	0.8110944527736131	0.9610194902548725	
1.710400960076776E12	2.652173913043478	-6.478260869565217	2.141304347826087	3944.322344322344	128.0	128.0	2.6281842742185924	26.83299622929051	29.461180503509105	481.01022672775116	576.1902220475939	-3.7404580152671754	4.534351145038168	0.07633587786259542	0.1634182908545727	0.8065967016491754	0.9910044977511244	
1.7104009600963076E12	2.630434782608696	-6.489130434782608	2.217391304347826	3951.6483516483513	128.0	128.0	2.631429747513503	26.739238111881985	29.37066785939549	481.00308668650234	576.2213785912251	-4.3206106870229	5.893129770992366	0.24427480916030533	0.17391304347826086	0.8065967016491754	0.9655172413793103	
1.7104009601158394E12	2.630434782608696	-6.489130434782608	2.1739130434782608	3950.18315018315	128.0	128.0	2.6052495962678908	26.708297933137175	29.313547529405064	481.00575518676703	576.2161137123244	-4.931297709923664	5.435114503816794	-0.030534351145038167	0.1619190404797601	0.8125937031484257	0.95952023988006	
1.710400960135371E12	2.6630434782608696	-6.456521739130435	2.0652173913043477	3950.18315018315	128.0	128.0	2.603807163692375	26.678006849051343	29.281814012743716	481.00575518676703	576.240346579593	-4.0	4.702290076335878	0.061068702290076333	0.1634182908545727	0.800599700149925	0.9655172413793103	
1.7104009601549028E12	2.6956521739130435	-6.445652173913043	2.152173913043478	3951.6483516483513	128.0	128.0	2.718119945302003	27.009549976533652	29.727669921835655	481.0043848758203	576.2347932141773	-3.32824427480916	5.312977099236641	0.12213740458015267	0.17241379310344826	0.7871064467766117	0.95952023988006	
1.7104009601744346E12	2.684782608695652	-6.489130434782608	2.152173913043478	3926.7399267399264	128.0	128.0	2.9265514524640386	28.057549364274667	30.984100816738707	481.0010672808966	575.653637129502	-4.152671755725191	5.587786259541985	0.0	0.17691154422788605	0.8125937031484257	0.9670164917541229	
1.7104009601939663E12	2.608695652173913	-6.467391304347826	2.119565217391304	3951.6483516483513	128.0	128.0	2.627967909332265	26.650816995002867	29.278784904335133	481.0024375918434	575.7607377482341	-3.6946564885496183	4.67175572519084	0.07633587786259542	0.17091454272863568	0.8110944527736131	0.9730134932533733	
1.710400960213498E12	2.7065217391304346	-6.369565217391304	2.0	3950.18315018315	128.0	128.0	2.6579705069029935	26.62384350584072	29.281814012743716	480.9997690915786	576.1531515304031	-2.6717557251908395	-0.8702290076335878	-0.7786259541984732	0.17091454272863568	0.7961019490254873	0.9730134932533733	
1.7104009602330298E12	2.5217391304347827	-6.521739130434782	2.3260869565217392	3942.8571428571427	128.0	128.0	2.6312855042559513	26.725823488929688	29.35710899318564	481.00351941627497	576.2635697440588	-4.748091603053435	9.83206106870229	0.16793893129770993	0.1619190404797601	0.8020989505247376	0.9700149925037481	
1.7104009602525613E12	2.75	-6.423913043478261	2.2391304347826084	3951.6483516483513	128.0	128.0	2.6188084624777392	26.749190896653047	29.367999359130785	481.0056109435095	576.2830425838283	-2.610687022900763	4.458015267175572	0.24427480916030533	0.16941529235382308	0.8020989505247376	0.9700149925037481	
1.710400960272093E12	2.6956521739130435	-6.369565217391304	2.141304347826087	3950.18315018315	128.0	128.0	2.6289054905063503	26.76311037100677	29.392015861513123	481.0031588081311	576.2943656795461	-3.541984732824427	6.99236641221374	0.5343511450381679	0.1649175412293853	0.8125937031484257	0.9670164917541229	
1.7104009602916248E12	2.652173913043478	-6.521739130434782	2.0978260869565215	3950.18315018315	128.0	128.0	2.6411661673982345	26.783376548692768	29.424542716091004	481.00279819998724	576.2967456932957	-6.916030534351145	4.549618320610687	0.2900763358778626	0.15442278860569714	0.7976011994002998	0.95952023988006	
1.7104009603111565E12	2.608695652173913	-6.5978260869565215	2.2065217391304346	3950.18315018315	128.0	128.0	2.6508304656541903	26.805878496870815	29.456708962525006	480.9978218076017	576.302154815454	-5.1603053435114505	5.709923664122138	0.24427480916030533	0.16941529235382308	0.8095952023988006	0.9640179910044977	
1.7104009603306882E12	2.6739130434782608	-6.521739130434782	2.1739130434782608	3926.7399267399264	128.0	128.0	2.673765143604892	26.88016377450988	29.553928918114774	480.99089813123925	576.3343210618879	-2.9618320610687023	5.099236641221374	0.13740458015267176	0.1664167916041979	0.8110944527736131	0.9655172413793103	
1.71040096035022E12	2.6739130434782608	-6.467391304347826	2.130434782608696	3951.6483516483513	128.0	128.0	2.6973489162145756	26.931802860713347	29.629151776927923	480.99270117195863	576.3584818075278	-3.099236641221374	5.175572519083969	0.183206106870229	0.17091454272863568	0.8035982008995503	0.9685157421289355	
1.7104009603697517E12	2.684782608695652	-6.423913043478261	2.0652173913043477	3951.6483516483513	128.0	128.0	2.730236378936336	27.0299603974772	29.760196776413537	480.98974418517884	576.4145924347154	-2.8854961832061066	5.648854961832061	0.564885496183206	0.17691154422788605	0.815592203898051	0.9670164917541229	
1.7104009603892834E12	2.6630434782608696	-6.423913043478261	2.0978260869565215	3944.322344322344	128.0	128.0	2.737232176927588	27.07741642921167	29.814648606139258	480.99075388798167	576.4235355166836	-3.068702290076336	6.595419847328244	0.8854961832061068	0.1619190404797601	0.8020989505247376	0.952023988005997	
1.7104009604088152E12	2.6630434782608696	-6.445652173913043	2.152173913043478	3951.6483516483513	128.0	128.0	2.711268390568303	27.09436501197398	29.805633402542284	480.9903932798378	576.3830752829404	-2.8702290076335877	6.549618320610687	1.2519083969465647	0.1664167916041979	0.8110944527736131	0.9430284857571214	
1.710400960428347E12	2.6630434782608696	-6.5	2.141304347826087	3951.6483516483513	128.0	128.0	2.6956901187527325	27.03594649266559	29.731636611418324	480.98758053631553	576.3357634944634	-3.4045801526717554	6.2748091603053435	1.2671755725190839	0.1664167916041979	0.8065967016491754	0.9580209895052474	
1.7104009604478787E12	2.652173913043478	-6.510869565217391	2.108695652173913	3950.18315018315	128.0	128.0	2.6525613847448093	26.93757259101541	29.59013397576022	480.9876526579443	576.283763800116	-2.8854961832061066	5.557251908396946	0.7633587786259541	0.15742128935532235	0.7976011994002998	0.95952023988006	
1.7104009604674104E12	2.630434782608696	-6.5	2.0869565217391304	3948.7179487179483	128.0	128.0	2.613038732175676	26.810422159483693	29.423460891659367	480.988085387717	576.2607570005366	-3.129770992366412	5.740458015267175	0.7175572519083969	0.17241379310344826	0.8125937031484257	0.9640179910044977	
1.710400960486942E12	2.641304347826087	-6.489130434782608	2.152173913043478	3928.205128205128	128.0	128.0	2.611019326569954	26.76765403361965	29.3786733601896	480.9930617801025	576.2430872014866	-2.946564885496183	5.969465648854961	0.7480916030534351	0.15142428785607195	0.8140929535232384	0.9580209895052474	
1.7104009605064736E12	2.7282608695652173	-6.5	2.0869565217391304	3950.18315018315	128.0	128.0	2.598614406420518	26.725967732187243	29.32458213860776	480.9875084146868	576.2528236213712	-2.916030534351145	6.534351145038167	0.6412213740458015	0.17091454272863568	0.8065967016491754	0.9505247376311844	
1.7104009605260054E12	2.6739130434782608	-6.467391304347826	2.260869565217391	3950.18315018315	128.0	128.0	2.5908252705127324	26.729213205482154	29.320038475994885	480.98988842843636	576.2600357842489	-2.854961832061069	6.458015267175572	0.3053435114503817	0.15742128935532235	0.8050974512743628	0.9640179910044977	
1.710400960545537E12	2.630434782608696	-6.4021739130434785	2.2282608695652173	3941.391941391941	128.0	128.0	2.6057544476693213	26.75755700559104	29.36331145326036	480.99118661775435	576.2747485965191	-1.7404580152671756	7.908396946564885	0.6412213740458015	0.17091454272863568	0.8065967016491754	0.9685157421289355	
1.7104009605650688E12	2.6739130434782608	-6.434782608695652	2.0760869565217392	3951.6483516483513	128.0	128.0	2.6214769627424435	26.772702547633955	29.394179510376397	480.9864265902551	576.2643630819754	-4.259541984732825	3.5725190839694654	0.8702290076335878	0.15142428785607195	0.7781109445277361	0.9655172413793103	
1.7104009605846006E12	2.608695652173913	-6.445652173913043	2.152173913043478	3950.18315018315	128.0	128.0	2.6298430716804355	26.799387550280994	29.42923062196143	480.98606598211126	576.2594588112187	-3.877862595419847	7.221374045801526	0.6870229007633587	0.1649175412293853	0.8050974512743628	0.9670164917541229	
1.7104009606041323E12	2.652173913043478	-6.521739130434782	2.1956521739130435	3950.18315018315	128.0	128.0	2.630420044710642	26.797656631190375	29.428076675901018	480.986787198399	576.2618388249682	-4.076335877862595	6.351145038167939	0.4427480916030534	0.1649175412293853	0.8125937031484257	0.9640179910044977	
1.710400960623664E12	2.7282608695652173	-6.532608695652174	2.1739130434782608	3950.18315018315	128.0	128.0	2.6357570452400503	26.770466777141902	29.406223822381953	480.98606598211126	576.2572230407266	-3.9389312977099236	6.351145038167939	0.8244274809160305	0.15442278860569714	0.7946026986506747	0.95952023988006	
1.7104009606431958E12	2.684782608695652	-6.5	2.1956521739130435	3928.205128205128	128.0	128.0	2.624722436037354	26.752003640175303	29.376726076212655	480.99111449612553	576.2599636626201	-3.129770992366412	6.900763358778626	0.8396946564885496	0.15742128935532235	0.8020989505247376	0.9670164917541229	
1.7104009606627275E12	2.641304347826087	-6.467391304347826	2.1630434782608696	3950.18315018315	128.0	128.0	2.6298430716804355	26.7359205169583	29.365763588638735	480.986787198399	576.2439526610318	-2.0763358778625953	6.2748091603053435	1.0534351145038168	0.15892053973013492	0.8035982008995503	0.9610194902548725	
1.7104009606822593E12	2.608695652173913	-6.434782608695652	2.108695652173913	3951.6483516483513	128.0	128.0	2.611956907744039	26.745584815214258	29.357541722958295	480.9890950905198	576.2585933516733	-2.4122137404580153	6.595419847328244	1.0534351145038168	0.1619190404797601	0.7976011994002998	0.9745127436281859	
1.710400960701791E12	2.652173913043478	-6.489130434782608	2.108695652173913	3942.8571428571427	128.0	128.0	2.621260597856116	26.724381056354176	29.34564165421029	480.9855611307098	576.266094001066	-3.7251908396946565	6.091603053435114	0.7938931297709924	0.1634182908545727	0.793103448275862	0.9580209895052474	
1.7104009607213225E12	2.6956521739130435	-6.467391304347826	2.108695652173913	3951.6483516483513	128.0	128.0	2.621621205999995	26.71846708279456	29.340088288794554	480.98447930627816	576.2711425150803	-2.8396946564885495	6.427480916030534	0.732824427480916	0.1649175412293853	0.8050974512743628	0.95952023988006	
1.7104009607408542E12	2.652173913043478	-6.445652173913043	2.108695652173913	3950.18315018315	128.0	128.0	2.610370231910972	26.71594282578741	29.32631305769838	480.986787198399	576.2563575811813	-2.8091603053435112	6.687022900763359	0.6106870229007634	0.1634182908545727	0.793103448275862	0.9580209895052474	
1.710400960760386E12	2.641304347826087	-6.445652173913043	2.141304347826087	3950.18315018315	128.0	128.0	2.6108029616836266	26.713995541810462	29.324798503494087	480.98931145540615	576.2547709053482	-3.5114503816793894	6.473282442748092	0.9770992366412213	0.15142428785607195	0.800599700149925	0.9475262368815592	
1.7104009607799177E12	2.641304347826087	-6.467391304347826	2.1739130434782608	3951.6483516483513	128.0	128.0	2.6067641504721824	26.71096643340188	29.31773058387406	480.9921963205572	576.2482078371296	-3.7557251908396947	5.877862595419847	0.8396946564885496	0.1649175412293853	0.8050974512743628	0.95952023988006	
1.7104009607994495E12	2.652173913043478	-6.467391304347826	2.1630434782608696	3928.205128205128	128.0	128.0	2.6183036110763087	26.708153689879623	29.32645730095593	480.9902490365802	576.2357307953514	-3.5114503816793894	6.3206106870229	0.6259541984732824	0.15742128935532235	0.8050974512743628	0.9490254872563718	
1.7104009608189812E12	2.7065217391304346	-6.489130434782608	2.119565217391304	3951.6483516483513	128.0	128.0	2.6131829754332276	26.70649489241778	29.319677867851006	480.98945569866373	576.2399138498204	-3.465648854961832	6.412213740458015	1.0687022900763359	0.1634182908545727	0.8065967016491754	0.9655172413793103	
1.710400960838513E12	2.6739130434782608	-6.467391304347826	2.108695652173913	3950.18315018315	128.0	128.0	2.609576893994438	26.71349069040903	29.323067584403468	480.9876526579443	576.2347932141773	-3.297709923664122	6.65648854961832	0.8091603053435115	0.15892053973013492	0.800599700149925	0.9730134932533733	
1.7104009608580447E12	2.6630434782608696	-6.467391304347826	2.130434782608696	3942.8571428571427	128.0	128.0	2.6136157052058824	26.7037542705243	29.31736997573018	480.99082600961043	576.2505878508792	-3.4045801526717554	6.900763358778626	0.564885496183206	0.15892053973013492	0.800599700149925	0.9505247376311844	
1.7104009608775764E12	2.684782608695652	-6.478260869565217	2.108695652173913	3951.6483516483513	128.0	128.0	2.6136157052058824	26.70800944662207	29.321625151827952	480.9936387531327	576.2420774986837	-3.6488549618320607	6.045801526717557	0.3511450381679389	0.1634182908545727	0.8065967016491754	0.9730134932533733	
1.7104009608971082E12	2.6630434782608696	-6.445652173913043	2.141304347826087	3950.18315018315	128.0	128.0	2.6077017316462676	26.719044055824767	29.326745787471033	480.99075388798167	576.2529678646288	-2.6259541984732824	6.198473282442748	0.2900763358778626	0.1634182908545727	0.8035982008995503	0.9685157421289355	
1.71040096091664E12	2.684782608695652	-6.445652173913043	2.1630434782608696	3948.7179487179483	128.0	128.0	2.610298110282196	26.715798582529857	29.32609669281205	480.9876526579443	576.2485684452735	-2.900763358778626	7.0534351145038165	0.5343511450381679	0.15892053973013492	0.800599700149925	0.9655172413793103	
1.7104009609361716E12	2.6739130434782608	-6.445652173913043	2.130434782608696	3944.322344322344	128.0	128.0	2.638281302247203	26.73981508491219	29.378096387159395	480.990970252868	576.2611897303093	-3.0229007633587783	6.65648854961832	0.5801526717557252	0.1619190404797601	0.8020989505247376	0.9670164917541229	
1.7104009609557031E12	2.6630434782608696	-6.478260869565217	2.1956521739130435	3925.274725274725	128.0	128.0	2.6626584127734203	26.77580377767131	29.43846219044473	480.9898163068076	576.2422217419412	-3.1908396946564883	6.625954198473282	0.8244274809160305	0.17241379310344826	0.7901049475262368	0.9640179910044977	
1.7104009609752349E12	2.6630434782608696	-6.489130434782608	2.0978260869565215	3951.6483516483513	128.0	128.0	2.6791021441343004	26.762028546575134	29.441130690709436	480.990970252868	576.2556363648936	-3.801526717557252	6.2748091603053435	0.6564885496183206	0.1664167916041979	0.7961019490254873	0.9685157421289355	
1.7104009609947666E12	2.684782608695652	-6.467391304347826	2.119565217391304	3951.6483516483513	128.0	128.0	2.6262369902416456	26.715437974385978	29.34167496462762	480.9875084146868	576.23875990376	-3.3893129770992365	6.106870229007633	0.41221374045801523	0.15742128935532235	0.8020989505247376	0.9565217391304347	
1.7104009610142983E12	2.641304347826087	-6.456521739130435	2.141304347826087	3942.8571428571427	128.0	128.0	2.624073341378372	26.69329663435181	29.31736997573018	480.98260414393	576.2461163098951	-3.7709923664122136	6.885496183206107	0.9770992366412213	0.15142428785607195	0.8035982008995503	0.9505247376311844	
1.71040096103383E12	2.684782608695652	-6.467391304347826	2.119565217391304	3950.18315018315	128.0	128.0	2.6197460436518245	26.695243918328757	29.31498996198058	480.9834696034753	576.2822492459118	-3.7862595419847325	6.122137404580153	0.7786259541984732	0.17841079460269865	0.8035982008995503	0.9505247376311844	
1.7104009610533618E12	2.684782608695652	-6.478260869565217	2.119565217391304	3950.18315018315	128.0	128.0	2.941336386363076	27.44646280365739	30.387799190020466	480.9820271708998	576.0544891422378	-3.6946564885496183	7.3893129770992365	0.9312977099236641	0.1634182908545727	0.8140929535232384	0.9580209895052474	
1.7104009610728936E12	2.717391304347826	-6.521739130434782	2.119565217391304	3948.7179487179483	128.0	128.0	2.848515850128633	27.955569381185697	30.804085231314332	480.98166656275595	575.3328401247073	-3.465648854961832	5.66412213740458	1.0534351145038168	0.1664167916041979	0.793103448275862	0.9610194902548725	
1.7104009610924253E12	2.7391304347826084	-6.434782608695652	1.9239130434782608	3950.18315018315	128.0	128.0	2.69590648363906	26.570545622175413	29.266452105814473	480.9862823469976	576.0231883553491	-3.0381679389312977	8.763358778625953	1.3282442748091603	0.16941529235382308	0.8125937031484257	0.9700149925037481	
1.710400961111957E12	2.5652173913043477	-6.478260869565217	2.119565217391304	3926.7399267399264	128.0	128.0	2.677876076445112	26.693296634351807	29.37117271079692	480.98974418517884	576.2538333241741	-4.885496183206107	4.106870229007633	0.04580152671755725	0.15892053973013492	0.8035982008995503	0.9610194902548725	
1.7104009611314888E12	2.5760869565217392	-6.478260869565217	2.3152173913043477	3950.18315018315	128.0	128.0	2.6441952758068177	26.760081262598188	29.404276538405007	480.98721992817167	576.2935002200009	-2.519083969465649	8.65648854961832	0.732824427480916	0.17241379310344826	0.8020989505247376	0.9670164917541229	
1.7104009611510205E12	2.793478260869565	-6.33695652173913	2.0978260869565215	3950.18315018315	128.0	128.0	2.6473686274729524	26.765778871271475	29.41314749874443	480.98404657650553	576.3097275864753	0.0916030534351145	5.740458015267175	0.6870229007633587	0.17241379310344826	0.8020989505247376	0.9670164917541229	
1.7104009611705522E12	2.6956521739130435	-6.423913043478261	2.032608695652174	3941.391941391941	128.0	128.0	2.663163264174851	26.796574806758738	29.45973807093359	480.9883017526033	576.3244403987457	-5.633587786259541	7.206106870229007	1.099236641221374	0.1664167916041979	0.8110944527736131	0.9610194902548725	
1.7104009611900837E12	2.5978260869565215	-6.521739130434782	2.1630434782608696	3950.18315018315	128.0	128.0	2.6591965745921824	26.823692539178438	29.48288911377062	480.9862102253688	576.3399465489324	-5.816793893129771	7.923664122137405	1.0381679389312977	0.15742128935532235	0.7976011994002998	0.9700149925037481	
1.7104009612096155E12	2.6739130434782608	-6.532608695652174	2.130434782608696	3951.6483516483513	128.0	128.0	2.6842227797773814	26.841001730084628	29.52522450986201	480.98245990067244	576.3504763067336	-4.381679389312977	6.961832061068702	0.7480916030534351	0.15742128935532235	0.8095952023988006	0.9565217391304347	
1.7104009612291472E12	2.7282608695652173	-6.489130434782608	2.0652173913043477	3950.18315018315	128.0	128.0	2.7070132144705314	26.898266303332605	29.605279517803137	480.984551427907	576.3979323384682	-3.847328244274809	5.801526717557252	0.8244274809160305	0.16941529235382308	0.8020989505247376	0.95952023988006	
1.710400961248679E12	2.717391304347826	-6.456521739130435	2.0978260869565215	3951.6483516483513	128.0	128.0	2.728577581474493	26.96137272851142	29.689950309985914	480.98123383298326	576.436589531492	-3.465648854961832	6.549618320610687	0.9007633587786259	0.15742128935532235	0.7946026986506747	0.9640179910044977	
1.7104009612682107E12	2.652173913043478	-6.456521739130435	2.0652173913043477	3926.7399267399264	128.0	128.0	2.757858962757464	27.07143033402328	29.829289296780743	480.9788538192337	576.4864255769761	-3.1755725190839694	6.2748091603053435	0.6106870229007634	0.16941529235382308	0.8050974512743628	0.9745127436281859	
1.7104009612877424E12	2.641304347826087	-6.434782608695652	2.0869565217391304	3951.6483516483513	128.0	128.0	2.7675953826421957	27.101360809965232	29.868956192607428	480.977771994802	576.480006752015	-3.5877862595419847	6.824427480916031	0.7786259541984732	0.17391304347826086	0.8035982008995503	0.9610194902548725	
1.7104009613072742E12	2.6739130434782608	-6.445652173913043	2.0760869565217392	3950.18315018315	128.0	128.0	2.740261285336171	27.12501670420369	29.865277989539862	480.9764016838553	576.4363010449769	-3.5877862595419847	6.8396946564885495	0.8091603053435115	0.15592203898050974	0.793103448275862	0.9730134932533733	
1.710400961326806E12	2.6630434782608696	-6.489130434782608	2.141304347826087	3941.391941391941	128.0	128.0	2.7149465936358683	27.035225276377833	29.750171870013702	480.9766901703704	576.3750697821463	-3.541984732824427	6.488549618320611	0.8396946564885496	0.15742128935532235	0.8095952023988006	0.9565217391304347	
1.7104009613463376E12	2.6630434782608696	-6.510869565217391	2.1630434782608696	3950.18315018315	128.0	128.0	2.6849439960651393	26.905262101323856	29.590206097388997	480.977771994802	576.3347537916605	-3.4351145038167936	6.7328244274809155	0.6412213740458015	0.1619190404797601	0.8020989505247376	0.9700149925037481	
1.7104009613658694E12	2.684782608695652	-6.5	2.108695652173913	3950.18315018315	128.0	128.0	2.651623803570724	26.79772875281915	29.449352556389876	480.9771950217718	576.2859274489794	-3.2213740458015265	6.106870229007633	0.7633587786259541	0.16941529235382308	0.7976011994002998	0.9640179910044977	
1.7104009613854011E12	2.630434782608696	-6.510869565217391	2.141304347826087	3948.7179487179483	128.0	128.0	2.6400843429665977	26.759143681424103	29.399228024390702	480.9787095759761	576.2792201375032	-3.114503816793893	7.022900763358779	0.6564885496183206	0.16941529235382308	0.8020989505247376	0.9670164917541229	
1.7104009614049329E12	2.782608695652174	-6.489130434782608	1.967391304347826	3951.6483516483513	128.0	128.0	2.6319345989149334	26.746738761274667	29.3786733601896	480.977771994802	576.2929953685993	-2.717557251908397	6.366412213740458	0.9007633587786259	0.1664167916041979	0.8035982008995503	0.9685157421289355	
1.7104009614244644E12	2.5	-6.413043478260869	2.3152173913043477	3926.7399267399264	128.0	128.0	2.633449153119225	26.73707446301871	29.370523616137937	480.9782047245747	576.2984044907575	-3.0534351145038165	8.320610687022901	0.564885496183206	0.15892053973013492	0.8035982008995503	0.9400299850074962	
1.710400961443996E12	2.7391304347826084	-6.423913043478261	2.0217391304347827	3948.7179487179483	128.0	128.0	2.6316461123998303	26.771115871800884	29.402761984200716	480.9794307922639	576.3038857345446	-3.9389312977099236	6.412213740458015	0.8549618320610687	0.16941529235382308	0.8050974512743628	0.9670164917541229	
1.7104009614635278E12	2.652173913043478	-6.423913043478261	2.0869565217391304	3951.6483516483513	128.0	128.0	2.6377764508457724	26.777606818390705	29.41538326923648	480.9781326029459	576.3027317884842	-4.580152671755725	4.67175572519084	1.0076335877862594	0.1619190404797601	0.8020989505247376	0.9745127436281859	
1.7104009614830596E12	2.641304347826087	-6.467391304347826	2.2282608695652173	3941.391941391941	128.0	128.0	2.6439067892917145	26.790300225055244	29.43420701434696	480.97907018412	576.2981160042425	-3.633587786259542	9.007633587786259	1.450381679389313	0.17091454272863568	0.800599700149925	0.9730134932533733	
1.7104009615025913E12	2.7065217391304346	-6.532608695652174	2.043478260869565	3950.18315018315	128.0	128.0	2.6467195328139703	26.796430563501186	29.443150096315158	480.9792865490063	576.2989814637878	-4.641221374045801	5.480916030534351	1.129770992366412	0.17241379310344826	0.8050974512743628	0.9460269865067465	
1.710400961522123E12	2.6956521739130435	-6.532608695652174	2.130434782608696	3950.18315018315	128.0	128.0	2.651623803570724	26.783953521722975	29.4355773252937	480.98260414393	576.2919135441678	-2.3053435114503817	7.343511450381679	1.297709923664122	0.17091454272863568	0.8035982008995503	0.9655172413793103	
1.7104009615416548E12	2.684782608695652	-6.5	2.0978260869565215	3948.7179487179483	128.0	128.0	2.6504698575103114	26.75539335672776	29.405863214238074	480.9857053739674	576.2919856657966	-2.610687022900763	7.267175572519084	1.1450381679389312	0.16941529235382308	0.7841079460269865	0.9700149925037481	
1.7104009615611865E12	2.6739130434782608	-6.456521739130435	2.0869565217391304	3950.18315018315	128.0	128.0	2.6360455317551534	26.75611457301552	29.392160104770674	480.9785653327186	576.2873698815549	-2.16793893129771	6.763358778625954	1.114503816793893	0.16941529235382308	0.8050974512743628	0.95952023988006	
1.7104009615807183E12	2.619565217391304	-6.445652173913043	2.0978260869565215	3926.7399267399264	128.0	128.0	2.644700127208248	26.729790178512356	29.374490305720606	480.9736610619618	576.2935723416296	-2.519083969465649	7.6183206106870225	1.4809160305343512	0.1634182908545727	0.8035982008995503	0.9655172413793103	
1.71040096160025E12	2.619565217391304	-6.467391304347826	2.043478260869565	3951.6483516483513	128.0	128.0	2.632150963801261	26.735848395329523	29.367999359130785	480.9709204400683	576.2859995706082	-4.0	7.511450381679389	1.2671755725190839	0.18590704647676162	0.7886056971514243	0.9610194902548725	
1.7104009616197817E12	2.684782608695652	-6.445652173913043	2.0652173913043477	3951.6483516483513	128.0	128.0	2.626741841643076	26.72055861002906	29.347300451672133	480.97474288639347	576.2955196256065	-3.236641221374046	6.137404580152672	1.083969465648855	0.18440779610194902	0.7946026986506747	0.9670164917541229	
1.7104009616393135E12	2.641304347826087	-6.445652173913043	2.0652173913043477	3941.391941391941	128.0	128.0	2.633809761263104	26.72048648840028	29.354296249663385	480.97582471082507	576.2888844357592	-2.5801526717557253	7.2824427480916025	0.9770992366412213	0.1619190404797601	0.8095952023988006	0.9565217391304347	
1.710400961658845E12	2.608695652173913	-6.478260869565217	2.0978260869565215	3950.18315018315	128.0	128.0	2.621332719484892	26.72531863752826	29.34665135701315	480.97806048131713	576.28765836807	-2.946564885496183	6.549618320610687	0.8091603053435115	0.17841079460269865	0.800599700149925	0.9550224887556221	
1.7104009616783767E12	2.641304347826087	-6.5	2.130434782608696	3951.6483516483513	128.0	128.0	2.6265975983855245	26.714284028325565	29.340881626711088	480.9791423057488	576.2882353411002	-3.145038167938931	6.152671755725191	0.7938931297709924	0.1649175412293853	0.8095952023988006	0.95952023988006	
1.7104009616979084E12	2.6630434782608696	-6.467391304347826	2.108695652173913	3948.7179487179483	128.0	128.0	2.621332719484892	26.722722258892333	29.344054978377223	480.97438227824955	576.286360178752	-2.519083969465649	5.969465648854961	0.5801526717557252	0.17091454272863568	0.7961019490254873	0.9685157421289355	
1.7104009617174402E12	2.6630434782608696	-6.5	2.108695652173913	3942.8571428571427	128.0	128.0	2.624722436037354	26.70548518961492	29.33020762565227	480.9775556299157	576.2764795156097	-2.4427480916030535	6.458015267175572	0.5801526717557252	0.14842578710644677	0.800599700149925	0.9655172413793103	
1.710400961736972E12	2.684782608695652	-6.489130434782608	2.0978260869565215	3934.065934065934	128.0	128.0	2.6384255455047545	26.7088027845386	29.347228330043357	480.9779162380596	576.2773449751551	-2.595419847328244	6.763358778625954	0.8396946564885496	0.1649175412293853	0.8020989505247376	0.9745127436281859	
1.7104009617565037E12	2.641304347826087	-6.478260869565217	2.141304347826087	3950.18315018315	128.0	128.0	2.613038732175676	26.720847096544162	29.333885828719836	480.9842629413919	576.2819607593967	-2.213740458015267	6.916030534351145	0.9312977099236641	0.17841079460269865	0.7886056971514243	0.9475262368815592	
