"sep=	"
Shimmer_6D72_TimestampSync_Unix_CAL	Shimmer_6D72_Accel_LN_X_CAL	Shimmer_6D72_Accel_LN_Y_CAL	Shimmer_6D72_Accel_LN_Z_CAL	Shimmer_6D72_Battery_CAL	Shimmer_6D72_ECG_EMG_Status1_CAL	Shimmer_6D72_ECG_EMG_Status2_CAL	Shimmer_6D72_ECG_LA-RA_24BIT_CAL	Shimmer_6D72_ECG_LL-LA_24BIT_CAL	Shimmer_6D72_ECG_LL-RA_24BIT_CAL	Shimmer_6D72_ECG_RESP_24BIT_CAL	Shimmer_6D72_ECG_Vx-RL_24BIT_CAL	Shimmer_6D72_Gyro_X_CAL	Shimmer_6D72_Gyro_Y_CAL	Shimmer_6D72_Gyro_Z_CAL	Shimmer_6D72_Mag_X_CAL	Shimmer_6D72_Mag_Y_CAL	Shimmer_6D72_Mag_Z_CAL	
ms	m/(s^2)	m/(s^2)	m/(s^2)	mV	no_units	no_units	mV	mV	mV	mV	mV	deg/s	deg/s	deg/s	local_flux	local_flux	local_flux	
1.7104008477487964E12	2.467391304347826	-6.619565217391304	2.9565217391304346	3928.205128205128	128.0	128.0	3.4364513679088797	23.778573129006997	27.215024496915877	481.31191150092025	575.7184023521427	-7.236641221374046	10.50381679389313	0.9007633587786259	0.16941529235382308	0.8095952023988006	0.9490254872563718	
1.7104008477683284E12	2.6630434782608696	-6.369565217391304	3.141304347826087	3951.6483516483513	128.0	128.0	3.4349368137045877	23.783261034877423	27.21819784858201	481.31162301440514	575.7304466641482	-0.9007633587786259	10.48854961832061	1.816793893129771	0.1664167916041979	0.8185907046476761	0.9550224887556221	
1.71040084778786E12	2.7065217391304346	-6.282608695652174	2.652173913043478	3953.113553113553	128.0	128.0	3.440057449347669	23.805186010025267	27.245243459372936	481.30722359504983	575.7559055991061	-5.068702290076335	4.580152671755725	1.3282442748091603	0.17391304347826086	0.8035982008995503	0.9610194902548725	
1.710400847807392E12	2.4891304347826084	-6.565217391304348	2.858695652173913	3947.252747252747	128.0	128.0	3.458953316086926	23.83136616127088	27.290319477357805	481.30808905459514	575.7551122611895	-9.81679389312977	8.732824427480915	0.9618320610687022	0.15142428785607195	0.8245877061469266	0.9550224887556221	
1.7104008478269238E12	2.5217391304347827	-6.58695652173913	2.858695652173913	3951.6483516483513	128.0	128.0	3.4784982774851656	23.868797286605513	27.34729556409068	481.3085939059966	575.7939136974709	-6.793893129770992	5.587786259541985	-0.15267175572519084	0.16941529235382308	0.8050974512743628	0.95952023988006	
1.7104008478464558E12	2.630434782608696	-6.510869565217391	2.8152173913043477	3951.6483516483513	128.0	128.0	3.516866983993886	23.88444768004986	27.401314664043745	481.30513206781535	575.8061743743627	-4.748091603053435	4.977099236641221	-0.12213740458015267	0.17091454272863568	0.8110944527736131	0.9505247376311844	
1.7104008478659875E12	2.619565217391304	-6.478260869565217	2.8043478260869565	3932.6007326007325	128.0	128.0	3.537638013081314	23.92815338708799	27.4657914001693	481.305564797588	575.8583904335965	-5.221374045801526	6.778625954198473	0.8549618320610687	0.16941529235382308	0.815592203898051	0.952023988005997	
1.7104008478855195E12	2.630434782608696	-6.434782608695652	2.7065217391304346	3951.6483516483513	128.0	128.0	3.5547308391011763	23.949645632463177	27.504376471564353	481.3028241756945	575.8841378550694	-4.519083969465648	5.877862595419847	0.4580152671755725	0.1664167916041979	0.8140929535232384	0.9505247376311844	
1.7104008479050513E12	2.5978260869565215	-6.4021739130434785	2.7717391304347827	3926.7399267399264	128.0	128.0	3.535330120960489	23.92779277894411	27.463122899904597	481.30267993243694	575.8864457471902	-3.1908396946564883	8.091603053435113	0.9770992366412213	0.15892053973013492	0.8140929535232384	0.9550224887556221	
1.710400847924583E12	2.619565217391304	-6.445652173913043	2.8260869565217392	3953.113553113553	128.0	128.0	3.4849892240749867	23.89007316709437	27.375062391169358	481.3006605268312	575.8510340274613	-4.641221374045801	8.183206106870228	0.9007633587786259	0.15892053973013492	0.800599700149925	0.9550224887556221	
1.710400847944115E12	2.619565217391304	-6.456521739130435	2.760869565217391	3951.6483516483513	128.0	128.0	3.4536163155575177	23.87947128766433	27.33308760322185	481.30498782455777	575.7886488185703	-4.549618320610687	6.717557251908397	0.6106870229007634	0.17091454272863568	0.8215892053973013	0.9655172413793103	
1.7104008479636467E12	2.5869565217391304	-6.478260869565217	2.7717391304347827	3947.252747252747	128.0	128.0	3.4083239326863213	23.83562133736865	27.243945270054972	481.30296841895205	575.738235800056	-5.221374045801526	7.526717557251908	0.9770992366412213	0.17691154422788605	0.815592203898051	0.95952023988006	
1.7104008479831787E12	2.5652173913043477	-6.510869565217391	2.8152173913043477	3951.6483516483513	128.0	128.0	3.392817782499526	23.81571576782653	27.208533550326056	481.30354539198225	575.7178253791125	-5.129770992366412	6.198473282442748	0.3511450381679389	0.15442278860569714	0.8125937031484257	0.9565217391304347	
1.7104008480027104E12	2.532608695652174	-6.4021739130434785	2.869565217391304	3953.113553113553	128.0	128.0	3.408756662458976	23.805618739797918	27.214375402256895	481.30102113497514	575.7212872172937	-2.6412213740458013	9.221374045801527	1.83206106870229	0.17391304347826086	0.8110944527736131	0.9550224887556221	
1.7104008480222424E12	2.684782608695652	-6.413043478260869	2.630434782608696	3935.531135531135	128.0	128.0	3.4192864202602413	23.823721268620645	27.243007688880887	481.3071514734211	575.7315284885799	-4.641221374045801	4.33587786259542	1.0534351145038168	0.17991004497751123	0.8125937031484257	0.9640179910044977	
1.7104008480417742E12	2.4239130434782608	-6.467391304347826	2.9239130434782608	3951.6483516483513	128.0	128.0	3.4298161780615066	23.85891662346323	27.288732801524738	481.3023193242931	575.7251817852476	-4.961832061068702	10.51908396946565	1.3282442748091603	0.16941529235382308	0.8050974512743628	0.952023988005997	
1.7104008480613062E12	2.5760869565217392	-6.5	2.8369565217391304	3926.7399267399264	128.0	128.0	3.429960421319058	23.860936029068952	27.29089645038801	481.30267993243694	575.7302302992618	-3.9847328244274807	4.687022900763359	-0.12213740458015267	0.1634182908545727	0.8035982008995503	0.9685157421289355	
1.710400848080838E12	2.6630434782608696	-6.5	2.8260869565217392	3953.113553113553	128.0	128.0	3.4285179887435424	23.872908219445733	27.301426208189277	481.30267993243694	575.7242442040734	-3.297709923664122	6.65648854961832	0.3969465648854962	0.1649175412293853	0.8050974512743628	0.9640179910044977	
1.7104008481003699E12	2.6630434782608696	-6.456521739130435	2.858695652173913	3951.6483516483513	128.0	128.0	3.4249840289335287	23.836919526686614	27.261903555620144	481.3016702296341	575.7282108936562	-2.2442748091603053	7.603053435114504	0.6259541984732824	0.1649175412293853	0.8125937031484257	0.95952023988006	
1.7104008481199016E12	2.608695652173913	-6.391304347826087	2.7717391304347827	3945.7875457875457	128.0	128.0	3.4164736767379855	23.83958802695132	27.256061703689305	481.3031126622096	575.7217199470664	-2.4427480916030535	6.290076335877862	0.33587786259541985	0.15592203898050974	0.8065967016491754	0.9550224887556221	
1.7104008481394336E12	2.5543478260869565	-6.391304347826087	2.782608695652174	3951.6483516483513	128.0	128.0	3.3988759993166924	23.827976444718413	27.226852444035107	481.3037617568686	575.730807272292	-4.3206106870229	7.49618320610687	0.5038167938931297	0.1634182908545727	0.8110944527736131	0.9655172413793103	
1.7104008481589653E12	2.5543478260869565	-6.445652173913043	2.782608695652174	3951.6483516483513	128.0	128.0	3.414959122533694	23.88444768004986	27.299406802583555	481.3017423512629	575.7152290004765	-5.893129770992366	7.2824427480916025	0.4427480916030534	0.1649175412293853	0.7946026986506747	0.95952023988006	
1.7104008481784973E12	2.630434782608696	-6.478260869565217	2.7391304347826084	3950.18315018315	128.0	128.0	3.4179161093135013	23.88870285614763	27.306618965461134	481.30217508103556	575.705420458963	-5.557251908396946	6.305343511450381	0.13740458015267176	0.15742128935532235	0.8095952023988006	0.9565217391304347	
1.710400848198029E12	2.630434782608696	-6.467391304347826	2.7282608695652173	3950.18315018315	128.0	128.0	3.430321029462937	23.95692991696953	27.387250946432466	481.30267993243694	575.6717396583247	-4.198473282442748	6.99236641221374	0.2748091603053435	0.17241379310344826	0.815592203898051	0.952023988005997	
1.710400848217561E12	2.608695652173913	-6.456521739130435	2.7065217391304346	3928.205128205128	128.0	128.0	3.444528990331768	23.886611328913133	27.331140319244902	481.30354539198225	575.7119835271816	-4.2748091603053435	6.748091603053435	0.2595419847328244	0.15892053973013492	0.8035982008995503	0.9550224887556221	
1.7104008482370928E12	2.532608695652174	-6.478260869565217	2.7391304347826084	3925.274725274725	128.0	128.0	3.409405757117958	23.829346755665153	27.238752512783112	481.3040502433837	575.7103247297198	-4.488549618320611	6.931297709923664	0.0	0.1649175412293853	0.8275862068965517	0.9460269865067465	
1.7104008482566248E12	2.5760869565217392	-6.467391304347826	2.7065217391304346	3953.113553113553	128.0	128.0	3.400102067005881	23.80590722631302	27.206009293318903	481.302030837778	575.7084495673716	-3.877862595419847	5.603053435114504	0.0916030534351145	0.1649175412293853	0.8125937031484257	0.9490254872563718	
1.7104008482761565E12	2.5652173913043477	-6.445652173913043	2.760869565217391	3947.252747252747	128.0	128.0	3.571823665121039	24.125910893191207	27.697734558312245	481.29914597262695	575.6943858497604	-2.778625954198473	6.351145038167939	0.13740458015267176	0.1649175412293853	0.8275862068965517	0.95952023988006	
1.7104008482956885E12	2.6739130434782608	-6.445652173913043	2.717391304347826	3951.6483516483513	128.0	128.0	3.7254427344134733	25.16128899589646	28.886731730309933	481.29885748611184	574.9854302388943	-4.549618320610687	5.32824427480916	0.061068702290076333	0.1664167916041979	0.8035982008995503	0.9550224887556221	
1.7104008483152202E12	2.5652173913043477	-6.434782608695652	2.684782608695652	3951.6483516483513	128.0	128.0	3.4069536217395813	24.02558970756408	27.432543329303662	481.3019587161492	574.9618464662846	-5.007633587786259	6.106870229007633	0.33587786259541985	0.1664167916041979	0.800599700149925	0.9655172413793103	
1.7104008483347522E12	2.630434782608696	-6.4021739130434785	2.5543478260869565	3939.9267399267396	128.0	128.0	3.4516690315805714	23.780015561582513	27.231684593163084	481.30188659452045	575.6819809296109	-5.7251908396946565	-1.5725190839694656	-0.8854961832061068	0.17391304347826086	0.8065967016491754	0.9475262368815592	
1.710400848354284E12	2.510869565217391	-6.58695652173913	2.8369565217391304	3951.6483516483513	128.0	128.0	3.4474859771115756	23.835837702254977	27.283323679366553	481.3006605268312	575.7292927180878	-5.419847328244274	8.427480916030534	0.3053435114503817	0.1664167916041979	0.8110944527736131	0.9655172413793103	
1.710400848373816E12	2.7391304347826084	-6.271739130434782	2.7717391304347827	3926.7399267399264	128.0	128.0	3.42873435362987	23.860863907440176	27.289598261070047	481.2990017293694	575.7663632352785	3.0229007633587783	6.412213740458015	1.2366412213740459	0.15742128935532235	0.8200899550224887	0.952023988005997	
1.7104008483933477E12	2.652173913043478	-6.380434782608695	2.5652173913043477	3953.113553113553	128.0	128.0	3.441211395408082	23.874422773650025	27.315634169058107	481.2992902158845	575.7776863309964	-6.3969465648854955	6.763358778625954	1.2213740458015268	0.15442278860569714	0.7976011994002998	0.952023988005997	
1.7104008484128796E12	2.5652173913043477	-6.554347826086956	2.7717391304347827	3953.113553113553	128.0	128.0	3.467752154797573	23.898727762547466	27.36647991734504	481.2992180942557	575.7978082654248	-7.511450381679389	6.961832061068702	0.07633587786259542	0.17241379310344826	0.8125937031484257	0.9565217391304347	
1.7104008484324114E12	2.630434782608696	-6.576086956521739	2.782608695652174	3945.7875457875457	128.0	128.0	3.4871528729382604	23.9406304288662	27.42778330180446	481.30210295940674	575.817353226823	-5.038167938931298	7.007633587786259	-0.5343511450381679	0.15892053973013492	0.8215892053973013	0.9610194902548725	
1.7104008484519434E12	2.7065217391304346	-6.543478260869565	2.652173913043478	3953.113553113553	128.0	128.0	3.5245839982728957	23.983254311472695	27.50783830974559	481.2983526347104	575.872382029579	-4.916030534351145	5.038167938931298	-0.2595419847328244	0.15742128935532235	0.8095952023988006	0.9565217391304347	
1.710400848471475E12	2.7065217391304346	-6.5	2.717391304347826	3953.113553113553	128.0	128.0	3.5343925397864036	24.030349735063286	27.56474227484969	481.2964053507335	575.9182513854804	-3.4198473282442747	7.587786259541985	0.183206106870229	0.15892053973013492	0.8065967016491754	0.9655172413793103	
1.710400848491007E12	2.6630434782608696	-6.467391304347826	2.7065217391304346	3951.6483516483513	128.0	128.0	3.5647557455010115	24.050255304605404	27.615011050106414	481.2952514046731	575.9538794700956	-2.8396946564885495	7.1603053435114505	0.2595419847328244	0.1619190404797601	0.815592203898051	0.9460269865067465	
1.7104008485105388E12	2.630434782608696	-6.423913043478261	2.652173913043478	3951.6483516483513	128.0	128.0	3.5672078808793883	24.053500777900314	27.6207086587797	481.2964053507335	575.9709001744867	-2.2442748091603053	7.740458015267175	0.32061068702290074	0.17091454272863568	0.8110944527736131	0.9655172413793103	
1.7104008485300708E12	2.630434782608696	-6.380434782608695	2.6739130434782608	3928.205128205128	128.0	128.0	3.5483841357689068	24.039148573773932	27.587532709542838	481.29489079652916	575.9377242252498	-2.6564885496183206	7.679389312977099	0.6717557251908397	0.1649175412293853	0.8125937031484257	0.9640179910044977	
1.7104008485496025E12	2.630434782608696	-6.423913043478261	2.6956521739130435	3951.6483516483513	128.0	128.0	3.513837875585303	23.975032445792255	27.488870321377558	481.29503503978674	575.841513972463	-3.6946564885496183	7.312977099236641	1.0229007633587786	0.16941529235382308	0.8050974512743628	0.9670164917541229	
1.7104008485691343E12	2.619565217391304	-6.478260869565217	2.717391304347826	3951.6483516483513	128.0	128.0	3.4808782912347667	23.921229710725513	27.40210800196028	481.29719868865	575.7852591020178	-3.9847328244274807	7.114503816793893	0.9618320610687022	0.16941529235382308	0.815592203898051	0.9640179910044977	
1.7104008485886663E12	2.630434782608696	-6.456521739130435	2.4782608695652173	3944.322344322344	128.0	128.0	3.4546981399891545	23.856248123198526	27.31094626318768	481.29489079652916	575.747539490168	-2.9923664122137406	6.549618320610687	0.564885496183206	0.17241379310344826	0.8095952023988006	0.9670164917541229	
1.710400848608198E12	2.5869565217391304	-6.456521739130435	2.8478260869565215	3953.113553113553	128.0	128.0	3.4465483959374903	23.851415974070548	27.29796437000804	481.2966938372486	575.7506407202054	-2.4580152671755724	5.251908396946565	0.13740458015267176	0.1619190404797601	0.8095952023988006	0.95952023988006	
1.71040084862773E12	2.608695652173913	-6.4021739130434785	2.858695652173913	3951.6483516483513	128.0	128.0	3.4440962605591134	23.872187003157975	27.31628326371709	481.2943859451278	575.75626620725	-3.145038167938931	7.603053435114504	0.33587786259541985	0.15142428785607195	0.8065967016491754	0.9685157421289355	
1.7104008486472617E12	2.717391304347826	-6.445652173913043	2.5978260869565215	3951.6483516483513	128.0	128.0	3.4522460046107777	23.912142385499763	27.36438839011054	481.29315987743854	575.7580692479694	-4.366412213740458	2.8854961832061066	0.47328244274809156	0.15742128935532235	0.8020989505247376	0.9460269865067465	
1.7104008486667937E12	2.5217391304347827	-6.423913043478261	2.7717391304347827	3951.6483516483513	128.0	128.0	3.4588811944581503	23.926494589626145	27.385375784084296	481.2920059313781	575.7515783013795	-2.6412213740458013	8.51908396946565	0.7786259541984732	0.16941529235382308	0.8125937031484257	0.9490254872563718	
1.7104008486863254E12	2.630434782608696	-6.456521739130435	2.7282608695652173	3928.205128205128	128.0	128.0	3.4537605588150693	23.936735860912307	27.390496419727377	481.29402533698385	575.753669828614	-3.709923664122137	4.7328244274809155	0.030534351145038167	0.15442278860569714	0.815592203898051	0.952023988005997	
1.7104008487058574E12	2.652173913043478	-6.521739130434782	2.8043478260869565	3953.113553113553	128.0	128.0	3.450731450406486	23.909401763606283	27.36013321401277	481.29344836395364	575.7454479629336	-4.259541984732825	5.969465648854961	0.10687022900763359	0.1619190404797601	0.8125937031484257	0.95952023988006	
1.7104008487253892E12	2.6956521739130435	-6.478260869565217	2.7282608695652173	3951.6483516483513	128.0	128.0	3.4570781537387556	23.893823491790712	27.35090164552947	481.289481674371	575.7355672997913	-2.8091603053435112	6.519083969465648	0.3511450381679389	0.1664167916041979	0.8140929535232384	0.9475262368815592	
1.7104008487449211E12	2.7282608695652173	-6.413043478260869	2.6739130434782608	3944.322344322344	128.0	128.0	3.451380545065468	23.877163395543505	27.328543940608974	481.2877507552804	575.727922407141	-1.984732824427481	4.809160305343512	0.22900763358778625	0.17691154422788605	0.8095952023988006	0.95952023988006	
1.710400848764453E12	2.641304347826087	-6.380434782608695	2.7282608695652173	3951.6483516483513	128.0	128.0	3.4365234895376555	23.868941529863065	27.30546501940072	481.28681317410627	575.7259030015354	-2.33587786259542	7.297709923664121	0.5801526717557252	0.15142428785607195	0.8110944527736131	0.9610194902548725	
1.7104008487839849E12	2.652173913043478	-6.434782608695652	2.6956521739130435	3950.18315018315	128.0	128.0	3.4433029226425798	23.936952225798635	27.380255148441215	481.28537074153076	575.7254702717627	-3.6946564885496183	6.473282442748092	0.7480916030534351	0.14842578710644677	0.8035982008995503	0.9580209895052474	
1.7104008488035166E12	2.652173913043478	-6.478260869565217	2.6956521739130435	3950.18315018315	128.0	128.0	3.454481775102827	23.971209999467135	27.425691774569962	481.2886162148257	575.6997228502897	-4.5038167938931295	6.412213740458015	0.6106870229007634	0.14692653673163417	0.8125937031484257	0.952023988005997	
1.7104008488230486E12	2.6630434782608696	-6.456521739130435	2.7282608695652173	3951.6483516483513	128.0	128.0	3.4834025482419193	23.923393359588786	27.406795907830706	481.28839984993937	575.7259751231641	-2.9923664122137406	7.404580152671755	0.8702290076335878	0.1634182908545727	0.8065967016491754	0.9430284857571214	
1.7104008488425803E12	2.6630434782608696	-6.456521739130435	2.6956521739130435	3928.205128205128	128.0	128.0	3.4368840976815345	23.86064754255385	27.297531640235384	481.2938810937263	575.7168877979384	-3.6030534351145036	7.267175572519084	0.8091603053435115	0.1664167916041979	0.8035982008995503	0.9475262368815592	
1.7104008488621123E12	2.652173913043478	-6.434782608695652	2.641304347826087	3951.6483516483513	128.0	128.0	3.423541596358013	23.851992947100754	27.275534543458768	481.29222229626447	575.7192678116879	-4.137404580152672	6.091603053435114	0.549618320610687	0.1664167916041979	0.8185907046476761	0.9610194902548725	
1.710400848881644E12	2.619565217391304	-6.467391304347826	2.7065217391304346	3951.6483516483513	128.0	128.0	3.4350089353333635	23.846006851912364	27.281015787245728	481.29366472884	575.7610262347491	-3.2213740458015265	6.381679389312977	0.4580152671755725	0.1634182908545727	0.8110944527736131	0.9610194902548725	
1.710400848901176E12	2.608695652173913	-6.456521739130435	2.7065217391304346	3944.322344322344	128.0	128.0	3.783789132093088	24.88304375207946	28.666832884172546	481.2955398911882	575.276945862406	-2.687022900763359	7.221374045801526	0.33587786259541985	0.1634182908545727	0.8245877061469266	0.9550224887556221	
1.7104008489207078E12	2.684782608695652	-6.478260869565217	2.782608695652174	3953.113553113553	128.0	128.0	3.4202961230631024	24.480244455366666	27.90054057842977	481.2982083914529	574.7839945297235	-3.6488549618320607	4.091603053435114	0.13740458015267176	0.17091454272863568	0.8110944527736131	0.9505247376311844	
1.7104008489402397E12	2.8152173913043477	-6.391304347826087	2.619565217391304	3950.18315018315	128.0	128.0	3.4536163155575177	23.726140704886998	27.179757020444516	481.2924386611508	575.4193139576095	-3.2061068702290076	7.114503816793893	0.3969465648854962	0.1619190404797601	0.8095952023988006	0.9670164917541229	
1.7104008489597715E12	2.5652173913043477	-6.532608695652174	2.684782608695652	3950.18315018315	128.0	128.0	3.4487841664295398	23.8813464500125	27.33013061644204	481.2960447425896	575.7296533262316	-5.770992366412213	10.045801526717558	-0.10687022900763359	0.14992503748125938	0.8125937031484257	0.952023988005997	
1.7104008489793035E12	2.641304347826087	-6.434782608695652	2.75	3950.18315018315	128.0	128.0	3.448062950141782	23.878317341603918	27.3263802917457	481.29315987743854	575.7619638159232	-1.465648854961832	8.82442748091603	1.0076335877862594	0.17241379310344826	0.8095952023988006	0.9565217391304347	
1.7104008489988352E12	2.7282608695652173	-6.293478260869565	2.7065217391304346	3926.7399267399264	128.0	128.0	3.452750856012208	23.911926020613436	27.364676876625644	481.291717444863	575.7988179682277	1.2366412213740459	4.305343511450381	0.8244274809160305	0.17091454272863568	0.8110944527736131	0.9430284857571214	
1.7104008490183672E12	2.630434782608696	-6.489130434782608	2.619565217391304	3951.6483516483513	128.0	128.0	3.4663097222220567	23.924114575876544	27.3904242980986	481.29294351255226	575.8024240496665	-7.633587786259541	7.1603053435114505	0.5343511450381679	0.1619190404797601	0.8095952023988006	0.9670164917541229	
1.710400849037899E12	2.630434782608696	-6.554347826086956	2.782608695652174	3951.6483516483513	128.0	128.0	3.4902541029756193	23.960031147006887	27.450285249982507	481.2924386611508	575.8306236065177	-5.633587786259541	6.2748091603053435	-0.21374045801526717	0.15442278860569714	0.8020989505247376	0.9385307346326837	
1.710400849057431E12	2.7065217391304346	-6.543478260869565	2.7065217391304346	3942.8571428571427	128.0	128.0	3.5123233213810114	23.981523392382076	27.493846713763087	481.2924386611508	575.869136556284	-3.6946564885496183	6.106870229007633	-0.22900763358778625	0.1649175412293853	0.8050974512743628	0.9490254872563718	
1.7104008490769626E12	2.7282608695652173	-6.510869565217391	2.652173913043478	3951.6483516483513	128.0	128.0	3.536916796793556	24.026383045480618	27.563299842274173	481.29258290440833	575.9002209782864	-4.2748091603053435	5.908396946564885	0.15267175572519084	0.17691154422788605	0.8275862068965517	0.952023988005997	
1.7104008490964946E12	2.7065217391304346	-6.467391304347826	2.6739130434782608	3951.6483516483513	128.0	128.0	3.574492165385743	24.065256603390768	27.63974876877651	481.2900586474012	575.9732080666075	-3.3587786259541983	6.961832061068702	0.12213740458015267	0.17241379310344826	0.8020989505247376	0.9640179910044977	
1.7104008491160264E12	2.684782608695652	-6.456521739130435	2.6630434782608696	3950.18315018315	128.0	128.0	3.589349220913556	24.070954212064056	27.66030343297761	481.29258290440833	575.9911663521727	-3.0381679389312977	6.763358778625954	0.2748091603053435	0.1634182908545727	0.8140929535232384	0.9610194902548725	
1.7104008491355583E12	2.6956521739130435	-6.413043478260869	2.652173913043478	3945.7875457875457	128.0	128.0	3.5588417719413963	24.041167979379654	27.60000975132105	481.29092410694653	575.9688807688809	-3.145038167938931	7.435114503816793	0.42748091603053434	0.16941529235382308	0.7976011994002998	0.9565217391304347	
1.71040084915509E12	2.6956521739130435	-6.391304347826087	2.6956521739130435	3928.205128205128	128.0	128.0	3.5329501072108878	24.015853287679352	27.54880339489024	481.29178956649184	575.9110392226028	-2.900763358778626	7.206106870229007	0.916030534351145	0.1619190404797601	0.8095952023988006	0.95952023988006	
1.710400849174622E12	2.6630434782608696	-6.467391304347826	2.7391304347826084	3951.6483516483513	128.0	128.0	3.490398346233171	23.9588050793177	27.44920342555087	481.28991440414364	575.8197332405726	-3.4198473282442747	7.267175572519084	1.0687022900763359	0.1619190404797601	0.8050974512743628	0.95952023988006	
1.7104008491941538E12	2.619565217391304	-6.510869565217391	2.630434782608696	3951.6483516483513	128.0	128.0	3.4594581674883567	23.90961812849261	27.369076295980967	481.28508225501565	575.7758111686481	-3.8931297709923665	8.045801526717558	0.8702290076335878	0.15742128935532235	0.8050974512743628	0.95952023988006	
1.7104008492136855E12	2.782608695652174	-6.478260869565217	2.5978260869565215	3942.8571428571427	128.0	128.0	3.4563569374509977	23.881923423042707	27.338280360493705	481.2880392417955	575.761386842893	-3.114503816793893	2.9618320610687023	0.549618320610687	0.1664167916041979	0.800599700149925	0.9505247376311844	
1.7104008492332175E12	2.5978260869565215	-6.434782608695652	2.880434782608696	3951.6483516483513	128.0	128.0	3.4553472346481366	23.887260423572116	27.342607658220253	481.2864525659624	575.7691759788008	-2.6564885496183206	10.473282442748092	0.6412213740458015	0.1649175412293853	0.8200899550224887	0.9565217391304347	
1.7104008492527493E12	2.8043478260869565	-6.434782608695652	2.5543478260869565	3951.6483516483513	128.0	128.0	3.455563599534464	23.918489088832033	27.374052688366497	481.2903471339163	575.7706905330051	-3.49618320610687	3.8931297709923665	0.3969465648854962	0.14992503748125938	0.7946026986506747	0.9700149925037481	
1.7104008492722812E12	2.6630434782608696	-6.456521739130435	2.7065217391304346	3951.6483516483513	128.0	128.0	3.471863087637793	23.946688645683366	27.41855173332116	481.29063562043143	575.7609541131204	-4.045801526717557	6.809160305343511	0.8549618320610687	0.17841079460269865	0.8215892053973013	0.9685157421289355	
1.710400849291813E12	2.652173913043478	-6.478260869565217	2.793478260869565	3947.252747252747	128.0	128.0	3.4754691690765824	23.945462577994178	27.42093174707076	481.2891931878559	575.7558334774773	-3.312977099236641	8.50381679389313	0.6106870229007634	0.1664167916041979	0.8065967016491754	0.9550224887556221	
1.710400849311345E12	2.6956521739130435	-6.521739130434782	2.7282608695652173	3928.205128205128	128.0	128.0	3.4653000194191956	23.935365549965567	27.400665569384763	481.2873901471365	575.757203788424	-4.198473282442748	5.938931297709924	0.47328244274809156	0.15892053973013492	0.8140929535232384	0.9580209895052474	
1.7104008493308767E12	2.717391304347826	-6.478260869565217	2.75	3953.113553113553	128.0	128.0	3.472872790440654	23.907021749856682	27.379894540297336	481.284649525243	575.7416255166085	-2.183206106870229	7.145038167938931	0.9618320610687022	0.1664167916041979	0.8140929535232384	0.9550224887556221	
1.7104008493504087E12	2.6739130434782608	-6.434782608695652	2.684782608695652	3951.6483516483513	128.0	128.0	3.4608284784350967	23.913007845045072	27.37383632348017	481.2876786336516	575.7384521649424	-2.564885496183206	7.007633587786259	0.7786259541984732	0.1634182908545727	0.8065967016491754	0.9550224887556221	
1.7104008493699404E12	2.6739130434782608	-6.413043478260869	2.6630434782608696	3942.8571428571427	128.0	128.0	3.456645423966101	23.887981639859873	27.344627063825975	481.28652468759117	575.7389570163438	-2.3053435114503817	6.8396946564885495	0.7175572519083969	0.1634182908545727	0.800599700149925	0.9505247376311844	
1.7104008493894724E12	2.6630434782608696	-6.445652173913043	2.6956521739130435	3951.6483516483513	128.0	128.0	3.440778665635427	23.893390762018058	27.334169427653485	481.29063562043143	575.7407600570632	-3.312977099236641	7.923664122137405	0.8854961832061068	0.1649175412293853	0.8095952023988006	0.9490254872563718	
1.7104008494090042E12	2.6630434782608696	-6.478260869565217	2.6739130434782608	3951.6483516483513	128.0	128.0	3.4465483959374903	23.866345151227137	27.312893547164627	481.2873180255077	575.7522995176673	-4.198473282442748	6.687022900763359	0.10687022900763359	0.1634182908545727	0.8320839580209894	0.9475262368815592	
1.7104008494285361E12	2.6739130434782608	-6.489130434782608	2.7065217391304346	3951.6483516483513	128.0	128.0	3.45015447737628	23.858628136948127	27.308782614324407	481.28753439039406	575.7433564356991	-3.2213740458015265	6.580152671755725	0.8396946564885496	0.1664167916041979	0.800599700149925	0.9550224887556221	
1.7104008494480679E12	2.6630434782608696	-6.423913043478261	2.6630434782608696	3951.6483516483513	128.0	128.0	3.457583005140186	23.88307736910312	27.340660374243306	481.28811136342426	575.7505685985767	-2.717557251908397	6.763358778625954	1.099236641221374	0.1664167916041979	0.793103448275862	0.9430284857571214	
1.7104008494675999E12	2.630434782608696	-6.456521739130435	2.652173913043478	3926.7399267399264	128.0	128.0	3.4614775730940788	23.922239413528374	27.383716986622453	481.2889768229696	575.750135868804	-3.068702290076336	6.961832061068702	1.2061068702290076	0.16941529235382308	0.8305847076461769	0.952023988005997	
1.7104008494871316E12	2.6739130434782608	-6.489130434782608	2.684782608695652	3951.6483516483513	128.0	128.0	3.4823207238102825	23.945462577994178	27.42778330180446	481.28782287690916	575.7317448534661	-3.3740458015267176	6.412213740458015	1.1450381679389312	0.15892053973013492	0.8110944527736131	0.9610194902548725	
1.7104008495066636E12	2.6956521739130435	-6.456521739130435	2.717391304347826	3951.6483516483513	128.0	128.0	3.4971056577093194	23.91358481807528	27.410690475784598	481.288183485053	575.7602328968326	-3.541984732824427	6.458015267175572	0.8854961832061068	0.15742128935532235	0.8095952023988006	0.9490254872563718	
1.7104008495261953E12	2.6956521739130435	-6.434782608695652	2.6630434782608696	3942.8571428571427	128.0	128.0	3.4570781537387556	23.8560317583122	27.313109912050955	481.28493801175813	575.7465297873653	-3.4351145038167936	6.305343511450381	1.1755725190839694	0.1634182908545727	0.7961019490254873	0.9610194902548725	
1.7104008495457273E12	2.7065217391304346	-6.456521739130435	2.6739130434782608	3951.6483516483513	128.0	128.0	3.449000531315867	23.83114979638455	27.28015032770042	481.2823416331222	575.7596559238024	-3.541984732824427	6.473282442748092	0.8702290076335878	0.15742128935532235	0.8050974512743628	0.9565217391304347	
1.710400849565259E12	2.7065217391304346	-6.478260869565217	2.717391304347826	3951.6483516483513	128.0	128.0	3.473882493243515	23.861224515584055	27.33510700882757	481.2858755929322	575.7989622114852	-2.763358778625954	6.625954198473282	0.8244274809160305	0.14692653673163417	0.815592203898051	0.9490254872563718	
1.710400849584791E12	2.717391304347826	-6.434782608695652	2.641304347826087	3950.18315018315	128.0	128.0	3.8069401749301166	24.977378842518196	28.78431901744831	481.2900586474012	575.1734513251128	-2.549618320610687	7.862595419847328	0.6870229007633587	0.15892053973013492	0.8035982008995503	0.9580209895052474	
1.7104008496043228E12	2.6630434782608696	-6.445652173913043	2.7282608695652173	3951.6483516483513	128.0	128.0	3.423830082873116	24.21959688897096	27.643426971844075	481.29150107997674	574.8706126058833	-3.3740458015267176	5.038167938931298	0.5343511450381679	0.14992503748125938	0.8020989505247376	0.9565217391304347	
1.7104008496238547E12	2.793478260869565	-6.413043478260869	2.4891304347826084	3928.205128205128	128.0	128.0	3.4942929141870636	23.79054531938378	27.284838233570845	481.2843610387279	575.6790239428311	-3.618320610687023	5.923664122137405	0.16793893129770993	0.15742128935532235	0.8125937031484257	0.9670164917541229	
1.7104008496433865E12	2.5978260869565215	-6.565217391304348	2.8369565217391304	3925.274725274725	128.0	128.0	3.470492776691053	23.847737771002983	27.318230547694036	481.284649525243	575.7729984251259	-3.7709923664122136	11.603053435114504	0.12213740458015267	0.15892053973013492	0.8035982008995503	0.9550224887556221	
1.7104008496629185E12	2.782608695652174	-6.369565217391304	2.793478260869565	3951.6483516483513	128.0	128.0	3.457222396996307	23.87983189580821	27.337054292804517	481.2850101333869	575.8011979819772	-0.549618320610687	12.412213740458014	1.5572519083969465	0.15142428785607195	0.8185907046476761	0.9610194902548725	
1.7104008496824502E12	2.7391304347826084	-6.391304347826087	2.5543478260869565	3942.8571428571427	128.0	128.0	3.4925619950964446	23.87795673346004	27.370518728556483	481.28270224126607	575.809636212544	-2.564885496183206	3.7251908396946565	1.2366412213740459	0.17091454272863568	0.8065967016491754	0.9610194902548725	
1.7104008497019822E12	2.641304347826087	-6.521739130434782	2.7391304347826084	3951.6483516483513	128.0	128.0	3.484844980817435	23.905651438909942	27.390496419727377	481.2832070926675	575.814468361672	-6.748091603053435	9.31297709923664	0.9923664122137404	0.1619190404797601	0.8020989505247376	0.9565217391304347	
1.710400849721514E12	2.652173913043478	-6.565217391304348	2.793478260869565	3953.113553113553	128.0	128.0	3.521050038462882	23.950943821781138	27.47199386024402	481.2837840656977	575.8389897154558	-3.6946564885496183	8.13740458015267	0.7175572519083969	0.1664167916041979	0.8110944527736131	0.9505247376311844	
1.710400849741046E12	2.7717391304347827	-6.532608695652174	2.619565217391304	3951.6483516483513	128.0	128.0	3.537349526566211	23.96623360708161	27.50358313364782	481.28609195781854	575.8736802188969	-4.137404580152672	5.984732824427481	0.549618320610687	0.15592203898050974	0.8140929535232384	0.9610194902548725	
1.7104008497605776E12	2.7391304347826084	-6.5	2.641304347826087	3951.6483516483513	128.0	128.0	3.5750691384159494	24.022849085670604	27.597918224086552	481.2837840656977	575.9504897535431	-3.709923664122137	7.3893129770992365	1.1908396946564885	0.17241379310344826	0.8380809595202399	0.95952023988006	
1.7104008497801096E12	2.6956521739130435	-6.434782608695652	2.652173913043478	3928.205128205128	128.0	128.0	3.594902586329292	24.030782464835937	27.62568505116523	481.28125980869055	575.9999651908834	-3.32824427480916	7.770992366412213	0.9465648854961831	0.1649175412293853	0.8125937031484257	0.9670164917541229	
1.7104008497996414E12	2.652173913043478	-6.434782608695652	2.652173913043478	3951.6483516483513	128.0	128.0	3.594541978185413	24.047298317825593	27.641840296011008	481.28450528198545	576.0040761237235	-3.3435114503816794	7.83206106870229	0.5343511450381679	0.15892053973013492	0.8035982008995503	0.9580209895052474	
1.7104008498191733E12	2.619565217391304	-6.413043478260869	2.7391304347826084	3951.6483516483513	128.0	128.0	3.583435247353941	24.03114307297982	27.61457832033376	481.28666893084875	575.9921039333468	-3.129770992366412	8.977099236641221	0.8091603053435115	0.15442278860569714	0.815592203898051	0.9415292353823088	
1.710400849838705E12	2.717391304347826	-6.445652173913043	2.630434782608696	3939.9267399267396	128.0	128.0	3.5620151236075315	23.990971325751705	27.552986449359235	481.28335133592503	575.9408254552872	-3.4351145038167936	7.099236641221374	1.4809160305343512	0.17091454272863568	0.8140929535232384	0.9550224887556221	
1.7104008498582368E12	2.684782608695652	-6.489130434782608	2.7282608695652173	3951.6483516483513	128.0	128.0	3.5219154980081915	23.934932820192913	27.456848318201104	481.28125980869055	575.8348066609868	-3.5114503816793894	6.763358778625954	1.3587786259541985	0.15742128935532235	0.8020989505247376	0.95952023988006	
1.7104008498777688E12	2.619565217391304	-6.532608695652174	2.5760869565217392	3951.6483516483513	128.0	128.0	3.4991971849438177	23.863099677932226	27.362296862876043	481.28342345755385	575.7988179682277	-4.458015267175572	8.335877862595419	1.5267175572519083	0.1649175412293853	0.7946026986506747	0.9700149925037481	
1.7104008498973005E12	2.7391304347826084	-6.532608695652174	2.7065217391304346	3950.18315018315	128.0	128.0	3.477704939568632	23.839804391837646	27.317509331406278	481.28306284940993	575.7875669941386	-3.5572519083969465	2.519083969465649	0.47328244274809156	0.1649175412293853	0.8125937031484257	0.95952023988006	
1.7104008499168325E12	2.5978260869565215	-6.423913043478261	2.8152173913043477	3951.6483516483513	128.0	128.0	3.4840516429009014	23.84348259490521	27.327534237806113	481.2844331603567	575.7874948725099	-1.7557251908396947	8.961832061068701	1.6946564885496183	0.17091454272863568	0.8110944527736131	0.9505247376311844	
1.7104008499363643E12	2.75	-6.391304347826087	2.510869565217391	3928.205128205128	128.0	128.0	3.4936438195280815	23.86901365149184	27.362657471019922	481.2873180255077	575.8000440359168	-3.114503816793893	4.351145038167939	1.3129770992366412	0.15592203898050974	0.8065967016491754	0.9580209895052474	
1.7104008499558962E12	2.641304347826087	-6.391304347826087	2.7391304347826084	3951.6483516483513	128.0	128.0	3.4999905228603514	23.88545738285272	27.38544790571307	481.2841446738416	575.7916058053501	-2.931297709923664	6.473282442748092	1.4198473282442747	0.15892053973013492	0.8140929535232384	0.9505247376311844	
1.710400849975428E12	2.6956521739130435	-6.423913043478261	2.75	3951.6483516483513	128.0	128.0	3.501432955435867	23.893318640389282	27.39475159582515	481.2874622687653	575.7898748862594	-2.610687022900763	8.076335877862595	0.9618320610687022	0.14842578710644677	0.8185907046476761	0.9475262368815592	
1.71040084999496E12	2.7282608695652173	-6.521739130434782	2.6630434782608696	3942.8571428571427	128.0	128.0	3.493860184414409	23.879399166035554	27.373259350449963	481.28724590387895	575.7889373050854	-3.7557251908396947	5.938931297709924	0.9618320610687022	0.15142428785607195	0.8110944527736131	0.9475262368815592	
1.7104008500144917E12	2.652173913043478	-6.478260869565217	2.75	3951.6483516483513	128.0	128.0	3.4949420088460457	23.856103879940974	27.35104588878702	481.28876045808323	575.7771814795949	-1.9389312977099236	8.015267175572518	1.2366412213740459	0.15892053973013492	0.8215892053973013	0.9685157421289355	
1.7104008500340237E12	2.652173913043478	-6.445652173913043	2.6630434782608696	3951.6483516483513	128.0	128.0	3.4857104403627446	23.834827999452116	27.32053843981486	481.2891931878559	575.7756669253906	-0.7938931297709924	7.694656488549618	1.099236641221374	0.15742128935532235	0.8095952023988006	0.952023988005997	
1.7104008500535554E12	2.630434782608696	-6.445652173913043	2.641304347826087	3951.6483516483513	128.0	128.0	3.478065547712511	23.827687958203313	27.305753505915824	481.28933743111344	575.7760996551633	-1.8778625954198473	7.297709923664121	1.0229007633587786	0.17091454272863568	0.8110944527736131	0.9655172413793103	
1.7104008500730874E12	2.608695652173913	-6.4021739130434785	2.684782608695652	3953.113553113553	128.0	128.0	3.4642903166163346	23.82588491748392	27.290175234100253	481.28839984993937	575.7869900211084	-2.4732824427480917	7.587786259541985	1.1603053435114503	0.15892053973013492	0.7961019490254873	0.9505247376311844	
1.7104008500926191E12	2.608695652173913	-6.445652173913043	2.684782608695652	3932.6007326007325	128.0	128.0	3.4699879252896224	23.804392672108733	27.274380597398356	481.29409745861267	575.7766045065647	-2.916030534351145	6.671755725190839	0.9618320610687022	0.1619190404797601	0.8050974512743628	0.9640179910044977	
1.7104008501121511E12	2.6630434782608696	-6.467391304347826	2.717391304347826	3953.113553113553	128.0	128.0	3.464434559873886	23.789751981467248	27.254186541341134	481.30015567542983	575.7772536012237	-2.732824427480916	6.106870229007633	1.0076335877862594	0.1634182908545727	0.800599700149925	0.9550224887556221	
1.7104008501316829E12	2.6630434782608696	-6.445652173913043	2.6956521739130435	3951.6483516483513	128.0	128.0	3.45700603210998	23.793862914307468	27.250868946417448	481.29323199906736	575.7746572225877	-1.7709923664122136	6.748091603053435	1.450381679389313	0.1634182908545727	0.8035982008995503	0.9610194902548725	
1.7104008501512148E12	2.652173913043478	-6.445652173913043	2.6739130434782608	3942.8571428571427	128.0	128.0	3.4699879252896224	23.81953821415165	27.28952613944127	481.2882556066818	575.7670123299375	-2.229007633587786	6.580152671755725	1.4198473282442747	0.17391304347826086	0.8065967016491754	0.9505247376311844	
1.7104008501707466E12	2.6739130434782608	-6.445652173913043	2.6739130434782608	3925.274725274725	128.0	128.0	3.496528684679113	23.85769055577404	27.354219240453155	481.29380897209757	575.7596559238024	-2.16793893129771	6.3969465648854955	1.2061068702290076	0.1634182908545727	0.8110944527736131	0.9550224887556221	
1.7104008501902786E12	2.652173913043478	-6.456521739130435	2.7391304347826084	3953.113553113553	128.0	128.0	3.5253052145606536	23.85480569062301	27.380110905183663	481.2905634988026	575.7590789507722	-2.198473282442748	7.1603053435114505	1.5114503816793892	0.14992503748125938	0.8200899550224887	0.952023988005997	
1.7104008502098103E12	2.652173913043478	-6.467391304347826	2.684782608695652	3948.7179487179483	128.0	128.0	3.4691945873730887	23.783116791619875	27.252311378992964	481.2909962285753	575.7677335462253	-2.1068702290076335	6.061068702290076	1.114503816793893	0.1634182908545727	0.800599700149925	0.9610194902548725	
1.7104008502293423E12	2.652173913043478	-6.445652173913043	2.684782608695652	3953.113553113553	128.0	128.0	3.460395748662442	23.78203496718824	27.24243071585068	481.29315987743854	575.7706184113763	-2.1221374045801524	6.961832061068702	1.4045801526717556	0.15592203898050974	0.8035982008995503	0.9610194902548725	
1.710400850248874E12	2.717391304347826	-6.423913043478261	2.717391304347826	3934.065934065934	128.0	128.0	3.4594581674883567	23.745397179770134	27.20485534725849	481.2902750122875	575.7623965456959	-1.8931297709923662	7.557251908396946	1.5267175572519083	0.1634182908545727	0.8185907046476761	0.9550224887556221	
1.710400850268406E12	2.630434782608696	-6.467391304347826	2.75	3951.6483516483513	128.0	128.0	3.69277163657804	24.072180279753244	27.764951916331285	481.29164532323426	575.8273060115941	-1.9236641221374045	6.152671755725191	1.0534351145038168	0.15892053973013492	0.8140929535232384	0.9505247376311844	
1.7104008502879377E12	2.684782608695652	-6.489130434782608	2.6739130434782608	3950.18315018315	128.0	128.0	3.7038783674095117	25.0190651439506	28.72294351136011	481.2963332291047	575.0153607148362	-1.7709923664122136	4.9465648854961835	0.5190839694656488	0.15742128935532235	0.8125937031484257	0.9565217391304347	
1.7104008503074697E12	2.5869565217391304	-6.478260869565217	2.684782608695652	3942.8571428571427	128.0	128.0	3.449072652944643	23.687844120007053	27.136916772951697	481.2930877558098	575.3898162114401	-1.83206106870229	1.2519083969465647	-0.015267175572519083	0.15442278860569714	0.8095952023988006	0.952023988005997	
1.7104008503270015E12	2.684782608695652	-6.380434782608695	2.543478260869565	3951.6483516483513	128.0	128.0	3.506625712707724	23.709624851897342	27.216250564605065	481.3003720403161	575.7216478254376	-3.9083969465648853	9.419847328244275	0.7633587786259541	0.1619190404797601	0.8230884557721139	0.9640179910044977	
1.7104008503465334E12	2.4891304347826084	-6.445652173913043	2.9565217391304346	3951.6483516483513	128.0	128.0	3.4857825619915204	23.794439887337674	27.280222449329194	481.29705444539246	575.7926876297818	1.2671755725190839	9.908396946564885	1.9236641221374045	0.14992503748125938	0.8095952023988006	0.952023988005997	
1.7104008503660652E12	2.8369565217391304	-6.271739130434782	2.75	3951.6483516483513	128.0	128.0	3.4836189131282467	23.792853211504607	27.276472124632853	481.29828051308164	575.807400442052	-4.061068702290076	6.1679389312977095	1.6946564885496183	0.15142428785607195	0.8215892053973013	0.9505247376311844	
1.7104008503855972E12	2.6739130434782608	-6.445652173913043	2.630434782608696	3951.6483516483513	128.0	128.0	3.495230495361149	23.83612618877008	27.33135668413123	481.30123749986143	575.8293975388286	-6.412213740458015	7.251908396946565	0.6412213740458015	0.1664167916041979	0.8065967016491754	0.9580209895052474	
1.710400850405129E12	2.5543478260869565	-6.630434782608695	2.793478260869565	3936.9963369963366	128.0	128.0	3.5068420775940514	23.839515905322543	27.346357982916594	481.30412236501246	575.8354557556457	-4.076335877862595	6.7328244274809155	0.030534351145038167	0.15592203898050974	0.8110944527736131	0.9505247376311844	
1.710400850424661E12	2.652173913043478	-6.5978260869565215	2.7282608695652173	3951.6483516483513	128.0	128.0	3.539368932171933	23.8491802035785	27.38854913575043	481.30015567542983	575.8546401089001	-3.2671755725190836	4.793893129770992	0.4427480916030534	0.17241379310344826	0.8020989505247376	0.95952023988006	
1.7104008504441926E12	2.7282608695652173	-6.456521739130435	2.652173913043478	3951.6483516483513	128.0	128.0	3.564899988758563	23.906805384970355	27.471705373728916	481.2972708102788	575.9029616001799	-3.6488549618320607	7.343511450381679	1.0229007633587786	0.17091454272863568	0.8035982008995503	0.9550224887556221	
1.7104008504637246E12	2.717391304347826	-6.413043478260869	2.6630434782608696	3942.8571428571427	128.0	128.0	3.5853825313308874	23.928225508716768	27.513608040047654	481.2969102021349	575.9331084410081	-2.717557251908397	6.824427480916031	1.3435114503816794	0.15442278860569714	0.8200899550224887	0.952023988005997	
1.7104008504832563E12	2.652173913043478	-6.391304347826087	2.630434782608696	3951.6483516483513	128.0	128.0	3.593965005155207	23.974816080905924	27.568781086061133	481.29618898584715	575.9623898222911	-2.7022900763358777	7.877862595419847	0.8702290076335878	0.17091454272863568	0.8140929535232384	0.9580209895052474	
1.710400850502788E12	2.5978260869565215	-6.423913043478261	2.7391304347826084	3953.113553113553	128.0	128.0	3.5730497328102273	23.9701281750355	27.543177907845728	481.29943445914205	575.9471721586194	-2.4122137404580153	7.236641221374046	0.8854961832061068	0.16941529235382308	0.8095952023988006	0.95952023988006	
1.71040085052232E12	2.652173913043478	-6.456521739130435	2.717391304347826	3950.18315018315	128.0	128.0	3.5403065133460183	23.9337788741325	27.474085387478517	481.2992902158845	575.8951003426433	-2.8854961832061066	6.778625954198473	0.7938931297709924	0.16941529235382308	0.8095952023988006	0.952023988005997	
1.7104008505418518E12	2.684782608695652	-6.456521739130435	2.7391304347826084	3953.113553113553	128.0	128.0	3.519319119372263	23.879687652550658	27.39900677192292	481.30217508103556	575.8392060803421	-2.9770992366412212	7.648854961832061	1.450381679389313	0.15892053973013492	0.8215892053973013	0.9610194902548725	
1.7104008505613838E12	2.684782608695652	-6.489130434782608	2.717391304347826	3928.205128205128	128.0	128.0	3.484844980817435	23.839083175549888	27.323928156367323	481.3016702296341	575.8022076847801	-3.7557251908396947	6.5038167938931295	1.0381679389312977	0.1619190404797601	0.8095952023988006	0.9670164917541229	
1.7104008505809155E12	2.6739130434782608	-6.554347826086956	2.7282608695652173	3953.113553113553	128.0	128.0	3.443879895672786	23.781169507642925	27.22504940331571	481.30484358130025	575.7921106567516	-1.2061068702290076	9.603053435114504	1.4809160305343512	0.1634182908545727	0.8035982008995503	0.9475262368815592	
1.7104008506004475E12	2.652173913043478	-6.391304347826087	2.793478260869565	3951.6483516483513	128.0	128.0	3.457655126768962	23.75693664037426	27.214591767143222	481.30217508103556	575.7910288323199	-1.2519083969465647	5.32824427480916	1.1908396946564885	0.1619190404797601	0.8125937031484257	0.9490254872563718	
1.7104008506199792E12	2.6956521739130435	-6.4021739130434785	2.619565217391304	3942.8571428571427	128.0	128.0	3.4753970474478066	23.777635547832915	27.25303259528072	481.3019587161492	575.7988179682277	-3.9541984732824424	8.274809160305344	1.6946564885496183	0.17091454272863568	0.8140929535232384	0.9430284857571214	
1.7104008506395112E12	2.5543478260869565	-6.445652173913043	2.880434782608696	3951.6483516483513	128.0	128.0	3.474531587902497	23.79501686036788	27.269548448270378	481.30058840520246	575.7958609814478	-2.3053435114503817	7.755725190839694	1.0229007633587786	0.14842578710644677	0.8065967016491754	0.9580209895052474	
1.710400850659043E12	2.7065217391304346	-6.456521739130435	2.782608695652174	3938.461538461538	128.0	128.0	3.4846286159311077	23.815787889455308	27.300416505386416	481.3023193242931	575.801270103606	-3.969465648854962	6.809160305343511	1.1908396946564885	0.1619190404797601	0.8095952023988006	0.9460269865067465	
1.710400850678575E12	2.7065217391304346	-6.5	2.760869565217391	3950.18315018315	128.0	128.0	3.4805898047196635	23.7991277932081	27.279717597927764	481.3003720403161	575.7970870491371	-2.9923664122137406	8.82442748091603	1.450381679389313	0.15592203898050974	0.800599700149925	0.9505247376311844	
1.7104008506981067E12	2.619565217391304	-6.445652173913043	2.793478260869565	3951.6483516483513	128.0	128.0	3.4757576555916856	23.802661753018114	27.2784194086098	481.30354539198225	575.7940579407284	-2.3053435114503817	8.51908396946565	1.3740458015267174	0.15592203898050974	0.8065967016491754	0.9505247376311844	
1.7104008507176387E12	2.630434782608696	-6.4021739130434785	2.7391304347826084	3928.205128205128	128.0	128.0	3.471430357865138	23.76984641192513	27.241276769790268	481.3058532841031	575.785836075048	-2.8702290076335877	7.343511450381679	1.1755725190839694	0.15742128935532235	0.8125937031484257	0.952023988005997	
1.7104008507371704E12	2.630434782608696	-6.4021739130434785	2.717391304347826	3923.8095238095234	128.0	128.0	3.458304221427944	23.754917234768538	27.213221456196482	481.3059254057319	575.7718444790655	-3.49618320610687	7.022900763358779	0.9312977099236641	0.1664167916041979	0.8065967016491754	0.9550224887556221	
1.7104008507567024E12	2.5978260869565215	-6.434782608695652	2.760869565217391	3950.18315018315	128.0	128.0	3.448712044800764	23.74958023423913	27.198292279039894	481.3098920953145	575.767156573195	-3.7862595419847325	8.213740458015266	1.297709923664122	0.1649175412293853	0.8125937031484257	0.9565217391304347	
1.7104008507762341E12	2.630434782608696	-6.456521739130435	2.760869565217391	3941.391941391941	128.0	128.0	3.4539769237013966	23.751383274958524	27.20536019865992	481.3100363385721	575.7512176932356	-4.473282442748092	6.870229007633587	0.8396946564885496	0.1649175412293853	0.815592203898051	0.952023988005997	
1.710400850795766E12	2.630434782608696	-6.5	2.717391304347826	3950.18315018315	128.0	128.0	3.452173882982002	23.722101893675553	27.174275776657556	481.30722359504983	575.7597280454312	-4.198473282442748	7.083969465648854	1.3587786259541985	0.1649175412293853	0.8275862068965517	0.9565217391304347	
1.7104008508152979E12	2.630434782608696	-6.467391304347826	2.6956521739130435	3951.6483516483513	128.0	128.0	3.454842383246706	23.760109992040395	27.2149523752871	481.3082332978527	575.769103857172	-3.3893129770992365	7.923664122137405	1.618320610687023	0.1664167916041979	0.8065967016491754	0.9550224887556221	
1.7104008508348298E12	2.608695652173913	-6.445652173913043	2.7065217391304346	3950.18315018315	128.0	128.0	3.4619824244955093	23.80533025328282	27.267312677778328	481.3046272164139	575.7674450597102	-3.1908396946564883	7.114503816793893	0.9007633587786259	0.1634182908545727	0.8245877061469266	0.9505247376311844	
1.7104008508543616E12	2.5978260869565215	-6.467391304347826	2.75	3953.113553113553	128.0	128.0	3.4629200056695946	23.8426171353599	27.305537141029497	481.3031126622096	575.7225132849828	-3.282442748091603	7.541984732824427	1.1755725190839694	0.15142428785607195	0.8110944527736131	0.9505247376311844	
1.7104008508738936E12	2.641304347826087	-6.445652173913043	2.760869565217391	3944.322344322344	128.0	128.0	3.481383142636197	23.80496964513894	27.286352787775137	481.3058532841031	575.74270734104	-3.068702290076336	6.65648854961832	1.0076335877862594	0.16941529235382308	0.815592203898051	0.9640179910044977	
1.7104008508934253E12	2.641304347826087	-6.4021739130434785	2.6956521739130435	3953.113553113553	128.0	128.0	3.4368119760527587	23.731549827045182	27.16836180309794	481.3106854332311	575.7470346387666	-3.4351145038167936	7.32824427480916	0.7022900763358778	0.17091454272863568	0.8185907046476761	0.9610194902548725	
1.7104008509129573E12	2.619565217391304	-6.4021739130434785	2.6739130434782608	3951.6483516483513	128.0	128.0	3.4277967724557845	23.727366772576186	27.15516354503197	481.3115508927764	575.7452315980472	-3.2671755725190836	7.358778625954198	0.7022900763358778	0.16941529235382308	0.815592203898051	0.9745127436281859	
1.710400850932489E12	2.630434782608696	-6.423913043478261	2.7391304347826084	3941.391941391941	128.0	128.0	3.5594187449716026	23.92937945477718	27.488798199748782	481.31025270345845	575.8143962400433	-3.297709923664122	6.687022900763359	1.0381679389312977	0.1634182908545727	0.7886056971514243	0.9610194902548725	
1.710400850952021E12	2.641304347826087	-6.478260869565217	2.684782608695652	3951.6483516483513	128.0	128.0	3.7206105852854954	24.87157641310411	28.592186998389604	481.3145078795562	575.2605021310452	-3.0381679389312977	4.5038167938931295	0.4580152671755725	0.15592203898050974	0.8110944527736131	0.9580209895052474	
1.7104008509715527E12	2.5543478260869565	-6.489130434782608	2.8152173913043477	3953.113553113553	128.0	128.0	3.376662537653749	23.78946349495214	27.16612603260589	481.3137145416397	575.2423274805936	-2.1374045801526718	7.740458015267175	0.6259541984732824	0.1664167916041979	0.8140929535232384	0.9580209895052474	
1.7104008509910847E12	2.782608695652174	-6.293478260869565	2.4782608695652173	3951.6483516483513	128.0	128.0	3.4588090728293746	23.635916547288485	27.09472562011786	481.31075755485983	575.6535650078732	-5.038167938931298	1.9236641221374045	-0.9923664122137404	0.15592203898050974	0.8110944527736131	0.9685157421289355	
1.7104008510106165E12	2.4565217391304346	-6.510869565217391	2.934782608695652	3953.113553113553	128.0	128.0	3.4601072621473388	23.7446038418536	27.20471110400094	481.31378666326844	575.7669402083087	-2.900763358778626	14.442748091603052	1.2061068702290076	0.15892053973013492	0.8110944527736131	0.9550224887556221	
1.7104008510301484E12	2.793478260869565	-6.358695652173913	2.869565217391304	3926.7399267399264	128.0	128.0	3.449433261088522	23.78535256211192	27.234785823200443	481.3140030281548	575.7900912511458	-1.7404580152671756	4.091603053435114	1.297709923664122	0.16941529235382308	0.8020989505247376	0.9565217391304347	
1.7104008510496802E12	2.782608695652174	-6.4021739130434785	2.543478260869565	3951.6483516483513	128.0	128.0	3.4611890865789756	23.768620344235938	27.229809430814914	481.31760910959355	575.7909567106911	-5.9541984732824424	6.152671755725191	0.916030534351145	0.17091454272863568	0.8185907046476761	0.9580209895052474	
1.7104008510692122E12	2.543478260869565	-6.608695652173913	2.717391304347826	3951.6483516483513	128.0	128.0	3.479724345174354	23.8196824574092	27.299406802583555	481.31227210906417	575.8133865372404	-5.694656488549618	7.633587786259541	0.0916030534351145	0.16941529235382308	0.8125937031484257	0.95952023988006	
1.710400851088744E12	2.608695652173913	-6.58695652173913	2.7717391304347827	3939.9267399267396	128.0	128.0	3.4953026169899246	23.823000052332887	27.31830266932281	481.3087381492541	575.8218247678071	-2.3053435114503817	5.312977099236641	-0.10687022900763359	0.1634182908545727	0.8110944527736131	0.9610194902548725	
1.7104008511082756E12	2.7282608695652173	-6.423913043478261	2.6630434782608696	3951.6483516483513	128.0	128.0	3.5302094853174077	23.8813464500125	27.411555935329908	481.3115508927764	575.8588231633692	-2.183206106870229	6.519083969465648	0.7938931297709924	0.17241379310344826	0.8125937031484257	0.95952023988006	
1.7104008511278076E12	2.6630434782608696	-6.369565217391304	2.652173913043478	3951.6483516483513	128.0	128.0	3.5583369205399658	23.904064763076875	27.46240168361684	481.3115508927764	575.897480356393	-2.8702290076335877	7.404580152671755	0.9465648854961831	0.16941529235382308	0.8050974512743628	0.95952023988006	
1.7104008511473394E12	2.6739130434782608	-6.391304347826087	2.5978260869565215	3950.18315018315	128.0	128.0	3.575501868188604	23.953323835530743	27.528825703719345	481.309747852057	575.9168810745336	-2.8702290076335877	7.145038167938931	0.9312977099236641	0.16941529235382308	0.8020989505247376	0.9565217391304347	
1.7104008511668713E12	2.5760869565217392	-6.423913043478261	2.7282608695652173	3951.6483516483513	128.0	128.0	3.561221785690998	23.984840987305763	27.54606277299676	481.31169513603396	575.924453845555	-2.564885496183206	8.534351145038167	0.7786259541984732	0.17841079460269865	0.8065967016491754	0.9550224887556221	
1.710400851186403E12	2.608695652173913	-6.456521739130435	2.7391304347826084	3945.7875457875457	128.0	128.0	3.524439755015344	23.95519899787891	27.479638752894253	481.30866602762535	575.8812529899184	-3.16030534351145	6.564885496183206	0.5343511450381679	0.17241379310344826	0.8050974512743628	0.9565217391304347	
1.710400851205935E12	2.6739130434782608	-6.445652173913043	2.684782608695652	3951.6483516483513	128.0	128.0	3.483546791499471	23.910916317810575	27.394463109310045	481.3118393792915	575.8075446853095	-2.717557251908397	6.488549618320611	0.9312977099236641	0.1619190404797601	0.8095952023988006	0.9640179910044977	
1.7104008512254668E12	2.652173913043478	-6.456521739130435	2.782608695652174	3951.6483516483513	128.0	128.0	3.450370842262607	23.849396568464826	27.299767410727434	481.31580606887417	575.7680941543691	-3.282442748091603	6.763358778625954	0.9770992366412213	0.1649175412293853	0.815592203898051	0.9565217391304347	
1.7104008512449988E12	2.6739130434782608	-6.554347826086956	2.6739130434782608	3939.9267399267396	128.0	128.0	3.416329433480434	23.800065374382182	27.216394807862617	481.30837754111025	575.7392455028588	-3.480916030534351	4.717557251908397	0.6564885496183206	0.1619190404797601	0.7976011994002998	0.9460269865067465	
1.7104008512645305E12	2.641304347826087	-6.478260869565217	2.9239130434782608	3951.6483516483513	128.0	128.0	3.4085402975726486	23.782251332074562	27.19079162964721	481.30967573042824	575.7383079216847	0.42748091603053434	8.763358778625953	1.8931297709923662	0.16941529235382308	0.815592203898051	0.95952023988006	
1.7104008512840625E12	2.6739130434782608	-6.358695652173913	2.5869565217391304	3951.6483516483513	128.0	128.0	3.426210096622717	23.776770088287602	27.20298018491032	481.3094593655419	575.7539583151291	-3.3587786259541983	4.549618320610687	1.2671755725190839	0.1649175412293853	0.815592203898051	0.9460269865067465	
1.7104008513035942E12	2.5978260869565215	-6.391304347826087	2.7282608695652173	3950.18315018315	128.0	128.0	3.429744056432731	23.80749390214609	27.23723795857882	481.3057811624743	575.750135868804	-3.480916030534351	9.419847328244275	1.0229007633587786	0.15892053973013492	0.8140929535232384	0.9550224887556221	
1.7104008513231262E12	2.5978260869565215	-6.456521739130435	2.9130434782608696	3951.6483516483513	128.0	128.0	3.4489284096870914	23.797685360632585	27.246613770319676	481.3088823925117	575.7506407202054	-3.7404580152671754	5.923664122137405	0.7480916030534351	0.15592203898050974	0.8215892053973013	0.9655172413793103	
1.710400851342658E12	2.6956521739130435	-6.489130434782608	2.6739130434782608	3928.205128205128	128.0	128.0	3.4496496259748493	23.832447985702515	27.282097611677365	481.30217508103556	575.7495588957738	-3.0076335877862594	7.251908396946565	1.1603053435114503	0.1634182908545727	0.8140929535232384	0.9580209895052474	
1.71040085136219E12	2.641304347826087	-6.445652173913043	2.75	3925.274725274725	128.0	128.0	3.453111464156087	23.82191822790125	27.275029692057338	481.3037617568686	575.7246769338461	-2.259541984732824	8.717557251908397	1.3740458015267174	0.1634182908545727	0.8110944527736131	0.9610194902548725	
1.7104008513817217E12	2.619565217391304	-6.423913043478261	2.7065217391304346	3951.6483516483513	128.0	128.0	3.4368840976815345	23.794656252223998	27.231540349905533	481.3071514734211	575.7500637471752	-3.49618320610687	6.045801526717557	0.9007633587786259	0.1619190404797601	0.8050974512743628	0.9415292353823088	
1.7104008514012537E12	2.608695652173913	-6.445652173913043	2.7065217391304346	3938.461538461538	128.0	128.0	3.4233973531004613	23.791843508701742	27.215240861802204	481.3066466220196	575.7273454341108	-3.5267175572519083	7.114503816793893	0.6106870229007634	0.17841079460269865	0.8140929535232384	0.9325337331334332	
1.7104008514207854E12	2.5543478260869565	-6.456521739130435	2.7391304347826084	3953.113553113553	128.0	128.0	3.426282218251493	23.754268140109556	27.18055035836105	481.3050599461866	575.734052745587	-3.633587786259542	6.473282442748092	0.7022900763358778	0.1619190404797601	0.815592203898051	0.95952023988006	
1.7104008514403174E12	2.641304347826087	-6.467391304347826	2.684782608695652	3953.113553113553	128.0	128.0	3.4126512304128687	23.765374870941027	27.178026101353897	481.3039060001262	575.7290042315727	-3.847328244274809	6.33587786259542	0.6870229007633587	0.1664167916041979	0.8065967016491754	0.9610194902548725	
1.710400851459849E12	2.6630434782608696	-6.445652173913043	2.782608695652174	3950.18315018315	128.0	128.0	3.408756662458976	23.77013489844023	27.178891560899206	481.30001143217225	575.720205392862	-2.9618320610687023	8.061068702290076	1.129770992366412	0.15742128935532235	0.815592203898051	0.9640179910044977	
1.710400851479381E12	2.630434782608696	-6.423913043478261	2.717391304347826	3951.6483516483513	128.0	128.0	3.408107567799994	23.774029466394122	27.182137034194117	481.2977756616802	575.711190189265	-3.32824427480916	6.412213740458015	1.0534351145038168	0.16941529235382308	0.8020989505247376	0.952023988005997	
1.7104008514989128E12	2.641304347826087	-6.467391304347826	2.6739130434782608	3928.205128205128	128.0	128.0	3.410776068064698	23.77251491218983	27.18329098025453	481.29943445914205	575.7207823658922	-3.5114503816793894	7.343511450381679	1.1450381679389312	0.15742128935532235	0.8095952023988006	0.9670164917541229	
1.7104008515184448E12	2.652173913043478	-6.445652173913043	2.760869565217391	3951.6483516483513	128.0	128.0	3.415608217192676	23.81261453778917	27.228222754981847	481.2983526347104	575.732754556269	-3.3740458015267176	7.6183206106870225	1.2519083969465647	0.15592203898050974	0.8035982008995503	0.9580209895052474	
1.7104008515379766E12	2.608695652173913	-6.423913043478261	2.7391304347826084	3951.6483516483513	128.0	128.0	3.4099827301481644	23.89555441088133	27.305537141029497	481.2987132428543	575.6986410258581	-3.312977099236641	7.022900763358779	0.8091603053435115	0.17391304347826086	0.8140929535232384	0.9505247376311844	
1.7104008515575085E12	2.5978260869565215	-6.423913043478261	2.7065217391304346	3936.9963369963366	128.0	128.0	3.440418057491548	23.825380066082488	27.265798123574037	481.29590049933205	575.7135702030147	-2.8244274809160306	7.145038167938931	1.0076335877862594	0.17241379310344826	0.8020989505247376	0.9565217391304347	
1.7104008515770403E12	2.608695652173913	-6.434782608695652	2.7391304347826084	3951.6483516483513	128.0	128.0	3.403131175414464	23.780664656241495	27.18379583165596	481.2969102021349	575.7151568788478	-2.854961832061069	6.8396946564885495	0.549618320610687	0.15592203898050974	0.800599700149925	0.9475262368815592	
1.7104008515965723E12	2.619565217391304	-6.413043478260869	2.684782608695652	3950.18315018315	128.0	128.0	3.3954141611354545	23.76775488469063	27.163169045826084	481.2987132428543	575.7127768650981	-2.916030534351145	5.938931297709924	0.2900763358778626	0.1634182908545727	0.8065967016491754	0.9475262368815592	
1.710400851616104E12	2.641304347826087	-6.434782608695652	2.7282608695652173	3950.18315018315	128.0	128.0	3.454914504875482	23.882428274444138	27.33734277931962	481.2996508240284	575.7641995864153	-2.4732824427480917	6.946564885496183	0.7480916030534351	0.1634182908545727	0.8110944527736131	0.9550224887556221	
1.710400851635636E12	2.652173913043478	-6.478260869565217	2.717391304347826	3951.6483516483513	128.0	128.0	3.7131820575215886	24.669996460675772	28.38317851819736	481.29770354005143	575.4263097556008	-3.282442748091603	4.65648854961832	0.24427480916030533	0.15142428785607195	0.8140929535232384	0.9475262368815592	
1.7104008516551677E12	2.619565217391304	-6.521739130434782	2.793478260869565	3928.205128205128	128.0	128.0	3.3392314123191134	23.937529198828845	27.276760611147957	481.2987132428543	575.0789719914164	-2.1221374045801524	7.3893129770992365	0.6564885496183206	0.14842578710644677	0.8140929535232384	0.9505247376311844	
1.7104008516746997E12	2.75	-6.3478260869565215	2.543478260869565	3951.6483516483513	128.0	128.0	3.418997933745138	23.650629359558746	27.069627293303885	481.2983526347104	575.552306241072	-4.091603053435114	-0.8244274809160305	-0.6717557251908397	0.15442278860569714	0.8125937031484257	0.9565217391304347	
1.7104008516942314E12	2.467391304347826	-6.543478260869565	2.858695652173913	3951.6483516483513	128.0	128.0	3.428013137342112	23.788165305634177	27.21617844297629	481.2997950672859	575.7452315980472	-3.618320610687023	11.954198473282442	0.9465648854961831	0.15892053973013492	0.8140929535232384	0.9730134932533733	
1.7104008517137634E12	2.7282608695652173	-6.293478260869565	2.891304347826087	3935.531135531135	128.0	128.0	3.430681637606816	23.787371967717643	27.21805360532446	481.2995065807708	575.7641274647865	-0.0916030534351145	5.49618320610687	1.7709923664122136	0.1649175412293853	0.8230884557721139	0.952023988005997	
1.7104008517332952E12	2.717391304347826	-6.413043478260869	2.6956521739130435	3925.274725274725	128.0	128.0	3.434143475788054	23.830572823354345	27.2647162991424	481.2952514046731	575.7739360063	-5.923664122137405	6.778625954198473	1.5419847328244274	0.1619190404797601	0.8050974512743628	0.9745127436281859	
1.710400851752827E12	2.5869565217391304	-6.630434782608695	2.75	3951.6483516483513	128.0	128.0	3.4516690315805714	23.83165464778598	27.283323679366553	481.29416958024143	575.7715559925504	-4.977099236641221	6.122137404580153	0.7022900763358778	0.14992503748125938	0.8095952023988006	0.9565217391304347	
1.710400851772359E12	2.619565217391304	-6.641304347826087	2.7717391304347827	3950.18315018315	128.0	128.0	3.4574387618826345	23.854228717592804	27.31166747947544	481.29489079652916	575.7895863997444	-1.7862595419847327	5.908396946564885	0.10687022900763359	0.1649175412293853	0.8200899550224887	0.9565217391304347	
1.7104008517918906E12	2.684782608695652	-6.489130434782608	2.6739130434782608	3951.6483516483513	128.0	128.0	3.4922735085813414	23.895338045995004	27.387611554576345	481.29121259346164	575.8273060115941	-0.6259541984732824	5.175572519083969	0.7633587786259541	0.1619190404797601	0.8305847076461769	0.9415292353823088	
1.7104008518114226E12	2.619565217391304	-6.380434782608695	2.652173913043478	3928.205128205128	128.0	128.0	3.5198960924024694	23.959598417234233	27.4794945096367	481.2905634988026	575.8518273653779	-0.9923664122137404	5.862595419847328	0.8244274809160305	0.1649175412293853	0.815592203898051	0.9460269865067465	
1.7104008518309543E12	2.608695652173913	-6.3478260869565215	2.6956521739130435	3953.113553113553	128.0	128.0	3.548239892511355	24.025878194079187	27.57411808659054	481.2870295389926	575.9120489254057	-1.8473282442748091	5.969465648854961	0.6106870229007634	0.17091454272863568	0.8215892053973013	0.9475262368815592	
1.7104008518504863E12	2.608695652173913	-6.391304347826087	2.7717391304347827	3951.6483516483513	128.0	128.0	3.5382149861115204	24.040446763091897	27.578661749203416	481.2877507552804	575.9305841840011	-2.5038167938931295	7.66412213740458	1.0381679389312977	0.17391304347826086	0.8065967016491754	0.9580209895052474	
1.710400851870018E12	2.684782608695652	-6.456521739130435	2.7391304347826084	3934.065934065934	128.0	128.0	3.509726942745083	24.014050246959957	27.52377718970504	481.2900586474012	575.8873833283643	-3.4351145038167936	6.244274809160305	1.0381679389312977	0.17091454272863568	0.8140929535232384	0.9610194902548725	
1.71040085188955E12	2.652173913043478	-6.456521739130435	2.7717391304347827	3953.113553113553	128.0	128.0	3.4635691003285767	23.968325134316103	27.43189423464468	481.29164532323426	575.8363933368198	-2.16793893129771	7.114503816793893	1.1755725190839694	0.18590704647676162	0.8110944527736131	0.9400299850074962	
1.7104008519090818E12	2.630434782608696	-6.434782608695652	2.7391304347826084	3950.18315018315	128.0	128.0	3.4443847470742166	23.899376857206448	27.343761604280665	481.29077986368895	575.7862688048207	-3.099236641221374	6.595419847328244	0.9618320610687022	0.17241379310344826	0.8200899550224887	0.9670164917541229	
1.7104008519286138E12	2.641304347826087	-6.489130434782608	2.717391304347826	3950.18315018315	128.0	128.0	3.4043572431036524	23.828481296119843	27.232838539223497	481.29020289065875	575.7450873547897	-3.877862595419847	6.1679389312977095	0.9770992366412213	0.18590704647676162	0.8065967016491754	0.9730134932533733	
1.7104008519481455E12	2.684782608695652	-6.510869565217391	2.75	3951.6483516483513	128.0	128.0	3.3992366074605713	23.80749390214609	27.20673050960666	481.2878949985379	575.7378751919122	-3.9083969465648853	4.8396946564885495	0.564885496183206	0.15892053973013492	0.8140929535232384	0.9610194902548725	
1.7104008519676775E12	2.5978260869565215	-6.456521739130435	2.8478260869565215	3950.18315018315	128.0	128.0	3.3885626064017544	23.783405278134975	27.17196788453673	481.29013076903	575.7573480316815	-1.6793893129770991	7.2824427480916025	1.5114503816793892	0.1619190404797601	0.8050974512743628	0.95952023988006	
1.7104008519872092E12	2.6739130434782608	-6.4021739130434785	2.6739130434782608	3951.6483516483513	128.0	128.0	3.3982269046577103	23.825380066082484	27.223606970740196	481.28811136342426	575.7638389782715	-3.145038167938931	6.061068702290076	0.9923664122137404	0.1619190404797601	0.8125937031484257	0.9415292353823088	
1.7104008520067412E12	2.5652173913043477	-6.4021739130434785	2.793478260869565	3951.6483516483513	128.0	128.0	3.4089009057165276	23.86014269115242	27.269043596868947	481.28839984993937	575.7679499111116	-2.549618320610687	7.007633587786259	0.916030534351145	0.17091454272863568	0.7961019490254873	0.9475262368815592	
1.710400852026273E12	2.641304347826087	-6.413043478260869	2.8260869565217392	3934.065934065934	128.0	128.0	3.417339136283295	23.878677949747797	27.296017086031092	481.28904894459833	575.7614589645218	-3.49618320610687	5.694656488549618	0.3969465648854962	0.15892053973013492	0.8140929535232384	0.9430284857571214	
1.710400852045805E12	2.6630434782608696	-6.456521739130435	2.782608695652174	3951.6483516483513	128.0	128.0	3.418997933745138	23.874278530392473	27.293276464137612	481.2878949985379	575.7566989370226	-4.091603053435114	7.175572519083969	0.8244274809160305	0.15742128935532235	0.8200899550224887	0.9565217391304347	
1.7104008520653367E12	2.652173913043478	-6.5	2.7391304347826084	3951.6483516483513	128.0	128.0	3.4171948930257434	23.86591242145448	27.283107314480226	481.2880392417955	575.7553286260759	-3.450381679389313	7.2824427480916025	0.8091603053435115	0.17241379310344826	0.8095952023988006	0.952023988005997	
1.7104008520848687E12	2.619565217391304	-6.434782608695652	2.7282608695652173	3950.18315018315	128.0	128.0	3.417411257912071	23.850622636154014	27.268033894066086	481.288183485053	575.7468182738803	-3.541984732824427	5.603053435114504	0.7022900763358778	0.1619190404797601	0.815592203898051	0.9565217391304347	
1.7104008521044004E12	2.608695652173913	-6.4021739130434785	2.7282608695652173	3951.6483516483513	128.0	128.0	3.4089009057165276	23.820547916954506	27.229448822671035	481.2914289583479	575.7394618677451	-3.3435114503816794	6.519083969465648	0.7022900763358778	0.17691154422788605	0.8095952023988006	0.9565217391304347	
1.7104008521239324E12	2.630434782608696	-6.413043478260869	2.717391304347826	3929.6703296703295	128.0	128.0	3.395197796249127	23.837135891572938	27.232333687822067	481.2911404718328	575.7313842453223	-4.549618320610687	6.702290076335878	0.916030534351145	0.17091454272863568	0.8140929535232384	0.9610194902548725	
1.710400852143464E12	2.652173913043478	-6.467391304347826	2.684782608695652	3951.6483516483513	128.0	128.0	3.388706849659306	23.835981945512525	27.224688795171833	481.2886162148257	575.7346297186172	-4.824427480916031	6.244274809160305	0.6717557251908397	0.16941529235382308	0.8095952023988006	0.9565217391304347	
1.710400852162996E12	2.630434782608696	-6.467391304347826	2.717391304347826	3951.6483516483513	128.0	128.0	3.3841631870464313	23.83453951293701	27.218702699983442	481.2889768229696	575.7305909074057	-3.7251908396946565	7.236641221374046	0.6717557251908397	0.17091454272863568	0.8215892053973013	0.9475262368815592	
1.7104008521825278E12	2.641304347826087	-6.456521739130435	2.6630434782608696	3932.6007326007325	128.0	128.0	3.390437768749925	23.820764281840834	27.21120205059076	481.2868852957351	575.7349903267611	-3.877862595419847	5.9541984732824424	0.5038167938931297	0.1664167916041979	0.8065967016491754	0.9505247376311844	
1.7104008522020598E12	2.619565217391304	-6.456521739130435	2.717391304347826	3953.113553113553	128.0	128.0	3.3836583356450007	23.83006797195291	27.213726307597913	481.28904894459833	575.7381636784272	-3.9083969465648853	6.763358778625954	0.549618320610687	0.17391304347826086	0.8140929535232384	0.9505247376311844	
1.7104008522215916E12	2.641304347826087	-6.423913043478261	2.7391304347826084	3951.6483516483513	128.0	128.0	3.3892117010607365	23.82667825540045	27.215889956461186	481.2898422825149	575.722801771498	-3.465648854961832	6.244274809160305	0.22900763358778625	0.15142428785607195	0.8185907046476761	0.9475262368815592	
1.7104008522411235E12	2.641304347826087	-6.434782608695652	2.684782608695652	3951.6483516483513	128.0	128.0	3.3879135117427723	23.849180203578495	27.23709371532127	481.28839984993937	575.7432121924415	-3.633587786259542	6.534351145038167	0.5954198473282443	0.16941529235382308	0.8230884557721139	0.9775112443778111	
1.7104008522606553E12	2.652173913043478	-6.445652173913043	2.7391304347826084	3951.6483516483513	128.0	128.0	3.400751161664863	23.897862303002157	27.29861346466702	481.28847197156813	575.7286436234289	-4.412213740458015	7.312977099236641	0.7786259541984732	0.1649175412293853	0.8020989505247376	0.9670164917541229	
1.7104008522801873E12	2.641304347826087	-6.5	2.760869565217391	3929.6703296703295	128.0	128.0	3.4117136492387834	23.944957726592747	27.35667137583153	481.28428891709916	575.7124162569543	-4.67175572519084	6.977099236641221	0.5801526717557252	0.17241379310344826	0.815592203898051	0.9415292353823088	
1.710400852299719E12	2.619565217391304	-6.510869565217391	2.75	3951.6483516483513	128.0	128.0	3.433422259500296	23.898006546259708	27.331428805760005	481.28695741736385	575.7429237059264	-4.595419847328244	6.106870229007633	0.7633587786259541	0.1634182908545727	0.8035982008995503	0.9580209895052474	
1.710400852319251E12	2.608695652173913	-6.489130434782608	2.7391304347826084	3951.6483516483513	128.0	128.0	3.387408660341342	23.851560217328096	27.23896887766944	481.28515437664447	575.7490540443723	-4.091603053435114	6.259541984732824	0.48854961832061067	0.1634182908545727	0.8110944527736131	0.9610194902548725	
1.7104008523387827E12	2.641304347826087	-6.445652173913043	2.6630434782608696	3932.6007326007325	128.0	128.0	3.395558404393006	23.830140093581687	27.225698497974694	481.2858755929322	575.7425630977825	-3.877862595419847	5.66412213740458	0.015267175572519083	0.1619190404797601	0.815592203898051	0.9565217391304347	
1.7104008523583147E12	2.6630434782608696	-6.4021739130434785	2.760869565217391	3953.113553113553	128.0	128.0	3.3943323367038176	23.879543409293106	27.273875745996925	481.29020289065875	575.7830954531545	-2.931297709923664	6.870229007633587	0.4580152671755725	0.18590704647676162	0.8290854572713643	0.9550224887556221	
1.7104008523778464E12	2.6630434782608696	-6.456521739130435	2.7282608695652173	3951.6483516483513	128.0	128.0	3.7322942891471733	25.01553118414059	28.74782547328776	481.289481674371	575.234826831201	-5.007633587786259	6.229007633587786	0.6564885496183206	0.1634182908545727	0.8215892053973013	0.9550224887556221	
1.7104008523973782E12	2.630434782608696	-6.521739130434782	2.7282608695652173	3950.18315018315	128.0	128.0	3.384956524962965	24.326192656301576	27.711149181264542	481.2943859451278	574.9355220717814	-4.534351145038168	6.381679389312977	0.7175572519083969	0.15142428785607195	0.8110944527736131	0.9610194902548725	
1.7104008524169102E12	2.7717391304347827	-6.3478260869565215	2.543478260869565	3951.6483516483513	128.0	128.0	3.443519287528907	23.751743883102403	27.19526317063131	481.29265502603715	575.6658256847651	-4.152671755725191	-0.38167938931297707	-0.2900763358778626	0.15892053973013492	0.800599700149925	0.9685157421289355	
1.710400852436442E12	2.5	-6.576086956521739	2.7717391304347827	3951.6483516483513	128.0	128.0	3.42873435362987	23.87298034107451	27.30171469470438	481.29236653952205	575.7690317355433	-5.435114503816794	10.48854961832061	0.7633587786259541	0.15742128935532235	0.8050974512743628	0.9640179910044977	
1.7104008524559739E12	2.7282608695652173	-6.358695652173913	2.7391304347826084	3951.6483516483513	128.0	128.0	3.4151754874200213	23.90211747909993	27.31729296651995	481.28847197156813	575.7966543193644	0.2595419847328244	5.633587786259541	0.6870229007633587	0.17691154422788605	0.8095952023988006	0.9700149925037481	
1.7104008524755056E12	2.652173913043478	-6.326086956521739	2.6739130434782608	3951.6483516483513	128.0	128.0	3.430393151091713	23.90810357428832	27.338496725380033	481.28652468759117	575.8128095642102	-5.129770992366412	8.687022900763358	1.0076335877862594	0.1649175412293853	0.8050974512743628	0.952023988005997	
1.7104008524950376E12	2.619565217391304	-6.554347826086956	2.630434782608696	3931.135531135531	128.0	128.0	3.4339271109017266	23.938106171859047	27.372033282760775	481.28284648452365	575.8231229571251	-8.396946564885496	5.49618320610687	0.4427480916030534	0.16941529235382308	0.8200899550224887	0.952023988005997	
1.7104008525145693E12	2.5760869565217392	-6.5978260869565215	2.782608695652174	3953.113553113553	128.0	128.0	3.467680033168797	23.971209999467135	27.438890032635932	481.28335133592503	575.837619404509	-4.030534351145038	7.816793893129771	0.3511450381679389	0.1829085457271364	0.8185907046476761	0.9580209895052474	
1.7104008525341013E12	2.7065217391304346	-6.467391304347826	2.6739130434782608	3953.113553113553	128.0	128.0	3.476695236765771	24.010227800634837	27.486923037400608	481.28226951149344	575.8736802188969	-3.129770992366412	4.977099236641221	0.2595419847328244	0.17091454272863568	0.8065967016491754	0.9550224887556221	
1.710400852553633E12	2.6739130434782608	-6.467391304347826	2.652173913043478	3950.18315018315	128.0	128.0	3.517588200281644	24.08271003755451	27.600298237836153	481.2787355516834	575.9308726705161	-3.6030534351145036	6.946564885496183	0.549618320610687	0.17091454272863568	0.8140929535232384	0.9685157421289355	
1.710400852573165E12	2.630434782608696	-6.434782608695652	2.652173913043478	3951.6483516483513	128.0	128.0	3.538647715884175	24.14711465205129	27.685762367935464	481.2788076733122	575.9535188619517	-2.9770992366412212	6.381679389312977	0.24427480916030533	0.17241379310344826	0.8200899550224887	0.9565217391304347	
1.7104008525926968E12	2.641304347826087	-6.467391304347826	2.6739130434782608	3951.6483516483513	128.0	128.0	3.54867262228401	24.184185169242046	27.732857791526055	481.27945676797117	575.9740014045241	-3.068702290076336	7.206106870229007	0.030534351145038167	0.1649175412293853	0.815592203898051	0.95952023988006	
1.7104008526122288E12	2.652173913043478	-6.434782608695652	2.7065217391304346	3951.6483516483513	128.0	128.0	3.528550687855564	24.185916088332664	27.714466776188228	481.2796731328575	575.9509946049445	-3.3435114503816794	7.206106870229007	0.549618320610687	0.15142428785607195	0.8065967016491754	0.9475262368815592	
1.7104008526317605E12	2.6739130434782608	-6.445652173913043	2.7282608695652173	3951.6483516483513	128.0	128.0	3.5067699559652756	24.129084244857342	27.635854200822617	481.28039434914524	575.9111113442316	-2.8396946564885495	6.702290076335878	0.4427480916030534	0.1649175412293853	0.8095952023988006	0.9640179910044977	
1.7104008526512925E12	2.684782608695652	-6.445652173913043	2.717391304347826	3931.135531135531	128.0	128.0	3.4554914779056882	24.036840681653107	27.492332159558796	481.27859130842586	575.827666619738	-2.916030534351145	7.221374045801526	1.1603053435114503	0.17691154422788605	0.8095952023988006	0.9640179910044977	
1.7104008526708242E12	2.6739130434782608	-6.467391304347826	2.6956521739130435	3926.7399267399264	128.0	128.0	3.4267149480241477	23.957723254886062	27.38443820291021	481.28212526823586	575.7987458465989	-3.312977099236641	7.206106870229007	1.2519083969465647	0.15442278860569714	0.8095952023988006	0.9640179910044977	
1.7104008526903562E12	2.5652173913043477	-6.489130434782608	2.543478260869565	3951.6483516483513	128.0	128.0	3.4218827988961698	23.906156290311372	27.328039089207543	481.281764660092	575.7902354944033	-3.145038167938931	6.763358778625954	0.732824427480916	0.17091454272863568	0.8035982008995503	0.9475262368815592	
1.710400852709888E12	2.717391304347826	-6.478260869565217	2.652173913043478	3950.18315018315	128.0	128.0	3.4157524604502276	23.901828992584825	27.317581453035054	481.2757785649036	575.7837445478135	-3.5877862595419847	5.786259541984733	0.33587786259541985	0.17091454272863568	0.8185907046476761	0.9580209895052474	
1.71040085272942E12	2.5760869565217392	-6.4021739130434785	2.8369565217391304	3951.6483516483513	128.0	128.0	3.414959122533694	23.917767872544275	27.33272699507797	481.27534583513096	575.7983131168262	-3.541984732824427	8.916030534351144	0.8549618320610687	0.1649175412293853	0.815592203898051	0.9565217391304347	
1.7104008527489517E12	2.7282608695652173	-6.413043478260869	2.532608695652174	3951.6483516483513	128.0	128.0	3.43558590836357	23.94560682125173	27.3811927296153	481.2754900783885	575.7825184801243	-4.702290076335878	3.709923664122137	0.41221374045801523	0.17391304347826086	0.800599700149925	0.9580209895052474	
1.7104008527684836E12	2.5978260869565215	-6.445652173913043	2.7065217391304346	3953.113553113553	128.0	128.0	3.4371725841966376	23.98498523056331	27.42215781475995	481.2808992005467	575.7828790882683	-3.3740458015267176	7.83206106870229	0.8244274809160305	0.1664167916041979	0.8140929535232384	0.9580209895052474	
1.7104008527880154E12	2.6739130434782608	-6.478260869565217	2.760869565217391	3951.6483516483513	128.0	128.0	3.445682936392181	23.983037946586364	27.428720882978546	481.2807549572891	575.7731426683835	-4.0	6.137404580152672	0.15267175572519084	0.15742128935532235	0.8020989505247376	0.95952023988006	
1.7104008528075474E12	2.684782608695652	-6.521739130434782	2.6630434782608696	3929.6703296703295	128.0	128.0	3.4426538279835976	23.98462462241943	27.42727845040303	481.28125980869055	575.7717723574367	-3.6946564885496183	6.061068702290076	0.7480916030534351	0.15442278860569714	0.815592203898051	0.9640179910044977	
1.710400852827079E12	2.6739130434782608	-6.489130434782608	2.717391304347826	3951.6483516483513	128.0	128.0	3.4437356524152345	23.961401457953627	27.405137110368862	481.27945676797117	575.7612425996355	-1.5725190839694656	7.0534351145038165	0.7938931297709924	0.14692653673163417	0.8095952023988006	0.9490254872563718	
1.710400852846611E12	2.641304347826087	-6.423913043478261	2.6739130434782608	3951.6483516483513	128.0	128.0	3.438687138400929	23.942938320987025	27.381625459387955	481.27945676797117	575.7568431802802	-2.0610687022900764	6.412213740458015	1.0534351145038168	0.15442278860569714	0.8095952023988006	0.9640179910044977	
1.7104008528661428E12	2.6630434782608696	-6.4021739130434785	2.6630434782608696	3950.18315018315	128.0	128.0	3.424190691016995	23.959093565832802	27.383284256849798	481.2808992005467	575.7679499111116	-3.32824427480916	7.312977099236641	0.7175572519083969	0.1649175412293853	0.8020989505247376	0.9670164917541229	
1.7104008528856748E12	2.641304347826087	-6.5	2.7065217391304346	3931.135531135531	128.0	128.0	3.4195749067753445	23.930100671064935	27.34967557784028	481.2767882677065	575.7692481004295	-4.7328244274809155	7.114503816793893	0.549618320610687	0.1664167916041979	0.8110944527736131	0.9580209895052474	
1.7104008529052065E12	2.6739130434782608	-6.478260869565217	2.6956521739130435	3931.135531135531	128.0	128.0	3.421522190752291	23.93428372553393	27.355805916286222	481.27887979494096	575.7699693167174	-3.2061068702290076	6.061068702290076	0.33587786259541985	0.15892053973013492	0.8185907046476761	0.9430284857571214	
1.7104008529247385E12	2.6739130434782608	-6.434782608695652	2.641304347826087	3951.6483516483513	128.0	128.0	3.4126512304128687	23.93067764409514	27.34332887450801	481.27686038933524	575.7634062484988	-2.183206106870229	6.473282442748092	0.732824427480916	0.17691154422788605	0.8095952023988006	0.9670164917541229	
1.7104008529442703E12	2.5978260869565215	-6.434782608695652	2.6739130434782608	3951.6483516483513	128.0	128.0	3.4150312441624697	23.922600021672253	27.337631265834723	481.2716676320634	575.7597280454312	-3.114503816793893	7.587786259541985	0.9312977099236641	0.1664167916041979	0.8110944527736131	0.9430284857571214	
1.7104008529638022E12	2.641304347826087	-6.467391304347826	2.641304347826087	3928.205128205128	128.0	128.0	3.4177718660559497	23.93478857693536	27.35256044299131	481.268566402026	575.7587904642571	-4.1679389312977095	6.3206106870229	0.8702290076335878	0.17391304347826086	0.8065967016491754	0.9655172413793103	
1.710400852983334E12	2.684782608695652	-6.478260869565217	2.684782608695652	3953.113553113553	128.0	128.0	3.410776068064698	23.927720657315334	27.338496725380033	481.2715955104346	575.7714838709217	-3.8625954198473282	6.427480916030534	0.9618320610687022	0.15742128935532235	0.8095952023988006	0.9490254872563718	
1.710400853002866E12	2.6956521739130435	-6.456521739130435	2.7065217391304346	3953.113553113553	128.0	128.0	3.4247676640472013	23.92793702220166	27.352704686248863	481.2706579292605	575.7763881416784	-2.763358778625954	6.671755725190839	0.8244274809160305	0.1649175412293853	0.8095952023988006	0.9415292353823088	
1.7104008530223977E12	2.6630434782608696	-6.434782608695652	2.684782608695652	3951.6483516483513	128.0	128.0	3.4361628813937766	23.974960324163476	27.411123205557253	481.27347067278276	575.7652092892181	-2.931297709923664	6.458015267175572	0.6259541984732824	0.15142428785607195	0.8110944527736131	0.9475262368815592	
1.7104008530419294E12	2.652173913043478	-6.423913043478261	2.6630434782608696	3951.6483516483513	128.0	128.0	3.447341733854024	24.024796369647547	27.47213810350157	481.2777979705093	575.7690317355433	-3.068702290076336	6.3969465648854955	0.4427480916030534	0.14992503748125938	0.8125937031484257	0.9565217391304347	
1.7104008530614614E12	2.6630434782608696	-6.423913043478261	2.6739130434782608	3951.6483516483513	128.0	128.0	3.487585602710915	23.98159551401085	27.469181116721764	481.2778700921381	575.7856197101617	-3.2213740458015265	6.488549618320611	0.42748091603053434	0.1664167916041979	0.8215892053973013	0.9655172413793103	
1.7104008530809932E12	2.6956521739130435	-6.445652173913043	2.7065217391304346	3951.6483516483513	128.0	128.0	3.4381822869994987	23.939043753033133	27.37722604003263	481.27087429414684	575.7892979132292	-3.9389312977099236	6.519083969465648	0.7480916030534351	0.1634182908545727	0.8065967016491754	0.9505247376311844	
1.7104008531005251E12	2.6630434782608696	-6.467391304347826	2.641304347826087	3951.6483516483513	128.0	128.0	3.427941015713336	23.905939925425045	27.333880941138382	481.2736870376691	575.781653020579	-3.6488549618320607	6.5038167938931295	0.6412213740458015	0.1409295352323838	0.8110944527736131	0.9610194902548725	
1.710400853120057E12	2.6956521739130435	-6.467391304347826	2.630434782608696	3929.6703296703295	128.0	128.0	3.4175555011696224	23.923898210990217	27.34145371215984	481.2729658213813	575.8146847265583	-3.282442748091603	6.305343511450381	0.7480916030534351	0.1634182908545727	0.8140929535232384	0.9610194902548725	
1.7104008531395889E12	2.641304347826087	-6.5	2.6630434782608696	3953.113553113553	128.0	128.0	3.779029104593886	24.802123284593023	28.581152389186908	481.2712349022907	575.4663372595712	-3.6488549618320607	7.114503816793893	0.5954198473282443	0.1634182908545727	0.8140929535232384	0.9610194902548725	
1.7104008531591206E12	2.717391304347826	-6.510869565217391	2.717391304347826	3951.6483516483513	128.0	128.0	3.534897391187834	24.874749764770243	28.409647155958076	481.27498522698704	574.8344075482378	-3.541984732824427	4.763358778625954	0.5801526717557252	0.17091454272863568	0.8065967016491754	0.9550224887556221	
1.7104008531786526E12	2.8369565217391304	-6.4021739130434785	2.5217391304347827	3950.18315018315	128.0	128.0	3.4705648983198287	23.822639444189008	27.293204342508837	481.27419188907055	575.620821788409	-3.145038167938931	4.045801526717557	0.12213740458015267	0.1649175412293853	0.8230884557721139	0.9565217391304347	
1.7104008531981843E12	2.5760869565217392	-6.554347826086956	2.7282608695652173	3951.6483516483513	128.0	128.0	3.4481350717705577	23.951665038068896	27.399800109839454	481.27440825395684	575.7846821289876	-5.603053435114504	12.091603053435113	0.6717557251908397	0.15592203898050974	0.8140929535232384	0.9730134932533733	
1.7104008532177163E12	2.630434782608696	-6.445652173913043	2.717391304347826	3934.065934065934	128.0	128.0	3.443879895672786	23.986427663138826	27.430307558811613	481.2743361323281	575.8242769031855	-1.0381679389312977	8.16793893129771	0.9465648854961831	0.15142428785607195	0.8185907046476761	0.9610194902548725	
1.710400853237248E12	2.7391304347826084	-6.315217391304348	2.630434782608696	3951.6483516483513	128.0	128.0	3.450731450406486	23.987293122684136	27.438024573090622	481.27383128092663	575.83697030985	0.13740458015267176	6.1679389312977095	1.129770992366412	0.17391304347826086	0.793103448275862	0.9550224887556221	
1.71040085325678E12	2.6630434782608696	-6.467391304347826	2.619565217391304	3951.6483516483513	128.0	128.0	3.4723679390392235	24.012679936013214	27.485047875052437	481.2715955104346	575.8373309179939	-6.900763358778626	7.938931297709924	0.6106870229007634	0.1619190404797601	0.8020989505247376	0.9565217391304347	
1.7104008532763118E12	2.652173913043478	-6.554347826086956	2.684782608695652	3929.6703296703295	128.0	128.0	3.493066846497875	24.022272112640398	27.515338959138273	481.2700809562303	575.8702905023445	-4.442748091603053	7.0534351145038165	0.6259541984732824	0.16941529235382308	0.8050974512743628	0.9565217391304347	
1.7104008532958438E12	2.717391304347826	-6.521739130434782	2.7065217391304346	3951.6483516483513	128.0	128.0	3.5149918216457157	24.059270508202378	27.574262329848093	481.2715233888058	575.8837772469255	-3.312977099236641	7.083969465648854	0.4427480916030534	0.15742128935532235	0.815592203898051	0.9565217391304347	
1.7104008533153755E12	2.760869565217391	-6.467391304347826	2.619565217391304	3950.18315018315	128.0	128.0	3.5444174461862383	24.119492068230162	27.6639095144164	481.2723888483511	575.9696019851688	-4.091603053435114	6.5038167938931295	0.5343511450381679	0.17391304347826086	0.8185907046476761	0.9610194902548725	
1.7104008533349075E12	2.684782608695652	-6.456521739130435	2.630434782608696	3950.18315018315	128.0	128.0	3.5736988274692094	24.178415438939986	27.752114266409194	481.2700088346015	576.0084755430789	-3.129770992366412	7.3893129770992365	0.7480916030534351	0.17091454272863568	0.8065967016491754	0.9580209895052474	
1.7104008533544392E12	2.630434782608696	-6.456521739130435	2.652173913043478	3951.6483516483513	128.0	128.0	3.6063699253046426	24.237194566392255	27.843564491696895	481.2638784961556	576.0403533029978	-2.8091603053435112	7.038167938931298	0.47328244274809156	0.1649175412293853	0.8020989505247376	0.9490254872563718	
1.7104008533739712E12	2.641304347826087	-6.423913043478261	2.630434782608696	3935.531135531135	128.0	128.0	3.6026917222370773	24.222337510864442	27.825029233101517	481.2662585099052	576.0311217345145	-3.0381679389312977	7.297709923664121	0.3511450381679389	0.1649175412293853	0.8125937031484257	0.9670164917541229	
1.710400853393503E12	2.6739130434782608	-6.423913043478261	2.630434782608696	3951.6483516483513	128.0	128.0	3.5713188137196084	24.192839764695144	27.76415857841475	481.26791730736704	575.9763092966449	-2.946564885496183	6.702290076335878	0.7786259541984732	0.16941529235382308	0.815592203898051	0.9415292353823088	
1.710400853413035E12	2.6956521739130435	-6.467391304347826	2.684782608695652	3951.6483516483513	128.0	128.0	3.5147033351306125	24.07650757747979	27.591210912610403	481.2689991317987	575.8803154087443	-3.16030534351145	6.8396946564885495	0.9770992366412213	0.16941529235382308	0.7901049475262368	0.95952023988006	
1.7104008534325667E12	2.6630434782608696	-6.510869565217391	2.7391304347826084	3928.205128205128	128.0	128.0	3.4689782224867614	24.002727151242155	27.471705373728916	481.2664748747915	575.8336527149264	-3.3435114503816794	7.007633587786259	1.0076335877862594	0.16941529235382308	0.8200899550224887	0.9640179910044977	
1.7104008534520986E12	2.641304347826087	-6.521739130434782	2.630434782608696	3953.113553113553	128.0	128.0	3.4471253689676966	23.95483838973503	27.401963758702728	481.266979726193	575.8115113748922	-2.8396946564885495	6.824427480916031	0.7633587786259541	0.1619190404797601	0.8125937031484257	0.9640179910044977	
1.7104008534716304E12	2.8260869565217392	-6.467391304347826	2.608695652173913	3953.113553113553	128.0	128.0	3.4477744636266787	23.938178293487823	27.385952757114502	481.26481607732967	575.795788859819	-2.091603053435114	1.4961832061068703	0.5190839694656488	0.16941529235382308	0.7976011994002998	0.95952023988006	
1.7104008534911624E12	2.5760869565217392	-6.434782608695652	2.891304347826087	3950.18315018315	128.0	128.0	3.4393362330599113	23.95159291644012	27.39092914950003	481.2728215781238	575.8164156456489	-3.236641221374046	10.778625954198473	1.1908396946564885	0.15892053973013492	0.8215892053973013	0.9550224887556221	
1.710400853510694E12	2.8043478260869565	-6.445652173913043	2.543478260869565	3929.6703296703295	128.0	128.0	3.446259909422387	23.9588050793177	27.405064988740087	481.2709464157756	575.8150453347022	-3.9236641221374042	2.7022900763358777	0.6259541984732824	0.15442278860569714	0.8230884557721139	0.9490254872563718	
1.710400853530226E12	2.619565217391304	-6.478260869565217	2.75	3938.461538461538	128.0	128.0	3.4604678702912177	23.988158582229445	27.448626452520664	481.2664748747915	575.8076889285671	-3.450381679389313	8.778625954198473	1.7862595419847327	0.15592203898050974	0.8140929535232384	0.9505247376311844	
1.7104008535497578E12	2.608695652173913	-6.510869565217391	2.75	3951.6483516483513	128.0	128.0	3.461405451465303	24.017944814913847	27.47935026637915	481.27116278066194	575.8076168069383	-3.49618320610687	7.603053435114504	1.0687022900763359	0.15742128935532235	0.7946026986506747	0.9565217391304347	
1.7104008535692898E12	2.6739130434782608	-6.5	2.619565217391304	3951.6483516483513	128.0	128.0	3.4559963293071188	24.024940612905098	27.480936942212217	481.2715955104346	575.8009816170909	-3.465648854961832	5.419847328244274	0.916030534351145	0.17691154422788605	0.8125937031484257	0.952023988005997	
1.7104008535888215E12	2.7065217391304346	-6.391304347826087	2.6956521739130435	3928.205128205128	128.0	128.0	3.464506681502662	24.003448367529913	27.467955049032575	481.27246096997993	575.7912451972062	-2.183206106870229	8.122137404580153	1.3435114503816794	0.1634182908545727	0.8140929535232384	0.9685157421289355	
1.7104008536083535E12	2.684782608695652	-6.467391304347826	2.641304347826087	3953.113553113553	128.0	128.0	3.465155776161644	23.974816080905924	27.43997185706757	481.26820579388215	575.7804269528898	-3.0534351145038165	6.748091603053435	0.916030534351145	0.17241379310344826	0.8020989505247376	0.9565217391304347	
1.7104008536278853E12	2.684782608695652	-6.467391304347826	2.717391304347826	3951.6483516483513	128.0	128.0	3.446692639195042	23.96976756689162	27.41646020608666	481.26604214501884	575.8011258603485	-2.595419847328244	6.916030534351145	1.083969465648855	0.15142428785607195	0.8185907046476761	0.9400299850074962	
1.7104008536474172E12	2.684782608695652	-6.413043478260869	2.684782608695652	3951.6483516483513	128.0	128.0	3.450731450406486	23.951953524584	27.402684974990486	481.27116278066194	575.8009816170909	-3.3587786259541983	7.450381679389313	0.8702290076335878	0.16941529235382308	0.8230884557721139	0.952023988005997	
1.710400853666949E12	2.6630434782608696	-6.467391304347826	2.619565217391304	3950.18315018315	128.0	128.0	3.4458271796497324	23.953900808560945	27.399727988210678	481.2706579292605	575.8097804558016	-4.381679389312977	6.015267175572519	0.7633587786259541	0.16941529235382308	0.8095952023988006	0.9670164917541229	
1.7104008536864807E12	2.684782608695652	-6.456521739130435	2.641304347826087	3951.6483516483513	128.0	128.0	3.442942314498701	23.94784259174378	27.39078490624248	481.2719561185785	575.7888651834566	-2.748091603053435	6.809160305343511	0.6870229007633587	0.14992503748125938	0.8095952023988006	0.9490254872563718	
1.7104008537060127E12	2.6739130434782608	-6.413043478260869	2.630434782608696	3950.18315018315	128.0	128.0	3.447630220369127	23.944813483335196	27.392443703704323	481.2712349022907	575.7861966831919	-2.6564885496183206	6.7328244274809155	0.916030534351145	0.15442278860569714	0.8050974512743628	0.9670164917541229	
1.7104008537255444E12	2.6956521739130435	-6.445652173913043	2.5760869565217392	3951.6483516483513	128.0	128.0	3.4481350717705577	23.929451576405953	27.37758664817651	481.2710906590332	575.7933367244407	-3.633587786259542	7.0534351145038165	1.1603053435114503	0.1634182908545727	0.8110944527736131	0.9505247376311844	
1.7104008537450764E12	2.684782608695652	-6.413043478260869	2.6630434782608696	3928.205128205128	128.0	128.0	3.4417162468095124	23.954117173447273	27.395833420256785	481.26806155062457	575.7955724949328	-3.7404580152671754	6.625954198473282	0.6259541984732824	0.15892053973013492	0.7961019490254873	0.9430284857571214	
1.7104008537646082E12	2.6739130434782608	-6.445652173913043	2.684782608695652	3951.6483516483513	128.0	128.0	3.4440962605591134	23.93738495557129	27.381481216130403	481.2707300508893	575.7991064547427	-3.66412213740458	7.114503816793893	0.7175572519083969	0.15592203898050974	0.8140929535232384	0.9505247376311844	
1.7104008537841401E12	2.6739130434782608	-6.467391304347826	2.6630434782608696	3953.113553113553	128.0	128.0	3.450442963891383	23.962483282385264	27.412926246276648	481.2709464157756	575.8041549687571	-3.2671755725190836	6.763358778625954	0.732824427480916	0.15592203898050974	0.8140929535232384	0.9580209895052474	
1.7104008538036719E12	2.652173913043478	-6.467391304347826	2.630434782608696	3951.6483516483513	128.0	128.0	3.472872790440654	24.027753356427358	27.50062614686801	481.265681536875	575.797736143796	-2.854961832061069	6.061068702290076	0.4580152671755725	0.1634182908545727	0.8035982008995503	0.9610194902548725	
1.7104008538232039E12	2.641304347826087	-6.445652173913043	2.6630434782608696	3951.6483516483513	128.0	128.0	3.4992693065725935	24.02068543680733	27.519954743379923	481.26322940149663	575.7885766969415	-2.7938931297709924	6.824427480916031	0.6412213740458015	0.1619190404797601	0.8095952023988006	0.952023988005997	
1.7104008538427356E12	2.684782608695652	-6.456521739130435	2.6739130434782608	3925.274725274725	128.0	128.0	3.4837631563857983	23.98159551401085	27.465358670396647	481.26575365850374	575.7978803870536	-3.099236641221374	6.3206106870229	0.7175572519083969	0.1619190404797601	0.815592203898051	0.9670164917541229	
1.7104008538622676E12	2.6739130434782608	-6.434782608695652	2.641304347826087	3953.113553113553	128.0	128.0	3.4487841664295398	23.94214498307049	27.39092914950003	481.2644554691858	575.8009816170909	-3.4045801526717554	6.183206106870228	0.33587786259541985	0.17241379310344826	0.8125937031484257	0.952023988005997	
1.7104008538817993E12	2.6956521739130435	-6.445652173913043	2.652173913043478	3951.6483516483513	128.0	128.0	3.4391919898023597	23.941351645153958	27.380543634956318	481.2643112259282	575.8034337524693	-3.099236641221374	6.137404580152672	0.4580152671755725	0.16941529235382308	0.8125937031484257	0.9565217391304347	
1.7104008539013313E12	2.6739130434782608	-6.467391304347826	2.7065217391304346	3928.205128205128	128.0	128.0	3.6251215487863484	24.243613391353296	27.868734940139646	481.26106575263333	575.8238441734129	-2.8091603053435112	6.870229007633587	0.5954198473282443	0.15592203898050974	0.8185907046476761	0.9580209895052474	
1.710400853920863E12	2.75	-6.489130434782608	2.641304347826087	3953.113553113553	128.0	128.0	3.7949679845533355	25.28295818364122	29.077926168194555	481.26705184782173	575.0687307201304	-3.114503816793893	5.770992366412213	0.564885496183206	0.17241379310344826	0.8275862068965517	0.95952023988006	
1.710400853940395E12	2.608695652173913	-6.4021739130434785	2.5652173913043477	3950.18315018315	128.0	128.0	3.4678242764263487	23.86490271865162	27.33272699507797	481.26193121217864	575.3379607603504	-3.0534351145038165	7.7251908396946565	0.8702290076335878	0.15742128935532235	0.8050974512743628	0.9565217391304347	
1.7104008539599268E12	2.6956521739130435	-6.380434782608695	2.4782608695652173	3950.18315018315	128.0	128.0	3.4970335360805436	23.892236815957645	27.38927035203819	481.262147577065	575.7370097323668	-4.0	-0.6259541984732824	-0.38167938931297707	0.1664167916041979	0.8140929535232384	0.9400299850074962	
1.7104008539794587E12	2.619565217391304	-6.5	2.8152173913043477	3951.6483516483513	128.0	128.0	3.4626315191544914	23.996524691167437	27.45915621032193	481.2624360635801	575.802568292924	-3.5725190839694654	10.167938931297709	1.0229007633587786	0.16941529235382308	0.815592203898051	0.9385307346326837	
1.7104008539989905E12	2.782608695652174	-6.380434782608695	2.6739130434782608	3942.8571428571427	128.0	128.0	3.4635691003285767	24.009290219460752	27.47285931978933	481.2643112259282	575.844687324129	0.3053435114503817	6.717557251908397	1.1908396946564885	0.15592203898050974	0.800599700149925	0.9610194902548725	
1.7104008540185225E12	2.717391304347826	-6.380434782608695	2.5869565217391304	3951.6483516483513	128.0	128.0	3.478065547712511	24.0178005716563	27.49586611936881	481.26322940149663	575.8525485816656	-3.7862595419847325	7.587786259541985	0.6717557251908397	0.15742128935532235	0.8125937031484257	0.95952023988006	
1.7104008540380542E12	2.641304347826087	-6.532608695652174	2.630434782608696	3951.6483516483513	128.0	128.0	3.48664802153683	24.051265007408265	27.537913028945095	481.26467183407215	575.8785123680249	-6.3969465648854955	7.114503816793893	0.41221374045801523	0.18440779610194902	0.8125937031484257	0.9490254872563718	
1.7104008540575862E12	2.630434782608696	-6.543478260869565	2.717391304347826	3928.205128205128	128.0	128.0	3.5161457677061283	24.09295130884067	27.6090970765468	481.26935973994256	575.8951003426433	-3.0839694656488548	7.358778625954198	0.48854961832061067	0.15142428785607195	0.8110944527736131	0.9580209895052474	
1.710400854077118E12	2.7282608695652173	-6.5	2.630434782608696	3953.113553113553	128.0	128.0	3.5419653108078615	24.153533477012335	27.695498787820195	481.2664748747915	575.9448642664986	-3.541984732824427	6.488549618320611	0.4427480916030534	0.1634182908545727	0.8065967016491754	0.9505247376311844	
1.71040085409665E12	2.7391304347826084	-6.423913043478261	2.5543478260869565	3951.6483516483513	128.0	128.0	3.5802618956878063	24.19082035908942	27.771082254777227	481.26322940149663	575.996863960846	-3.1908396946564883	6.381679389312977	0.549618320610687	0.1649175412293853	0.7976011994002998	0.9700149925037481	
1.7104008541161816E12	2.717391304347826	-6.423913043478261	2.5978260869565215	3951.6483516483513	128.0	128.0	3.609038425569347	24.294387018011456	27.9034254435808	481.26553729361746	576.0614849402291	-3.145038167938931	6.961832061068702	0.549618320610687	0.15892053973013492	0.8140929535232384	0.9475262368815592	
1.7104008541357136E12	2.6739130434782608	-6.434782608695652	2.6739130434782608	3953.113553113553	128.0	128.0	3.6142311828412037	24.284289989982845	27.898521172824047	481.26481607732967	576.0631437376909	-2.595419847328244	7.709923664122137	0.732824427480916	0.1649175412293853	0.8050974512743628	0.9490254872563718	
1.7104008541552454E12	2.7065217391304346	-6.467391304347826	2.652173913043478	3951.6483516483513	128.0	128.0	3.595551680988274	24.280828151801607	27.87637983278988	481.2664748747915	576.033501748264	-3.068702290076336	7.587786259541985	0.7938931297709924	0.17691154422788605	0.8095952023988006	0.952023988005997	
1.7104008541747773E12	2.6956521739130435	-6.456521739130435	2.652173913043478	3950.18315018315	128.0	128.0	3.544922297587669	24.191902183521055	27.736824481108723	481.26322940149663	575.9417630364612	-2.5038167938931295	6.946564885496183	1.3893129770992365	0.17091454272863568	0.8110944527736131	0.9655172413793103	
1.710400854194309E12	2.6956521739130435	-6.456521739130435	2.717391304347826	3951.6483516483513	128.0	128.0	3.5016493203221946	24.12071813591935	27.622367456241545	481.2626524284664	575.8763487191617	-2.030534351145038	7.679389312977099	1.4961832061068703	0.17091454272863568	0.8215892053973013	0.9685157421289355	
1.710400854213841E12	2.641304347826087	-6.510869565217391	2.6956521739130435	3928.205128205128	128.0	128.0	3.4716467227514656	24.02616668059429	27.497813403345756	481.25926271191395	575.8275944981092	-3.114503816793893	7.2824427480916025	1.3740458015267174	0.1619190404797601	0.7976011994002998	0.9490254872563718	
1.7104008542333728E12	2.7717391304347827	-6.510869565217391	2.5217391304347827	3953.113553113553	128.0	128.0	3.45563572116324	24.009867192490958	27.4655029136542	481.26012817145926	575.8235556868977	-3.099236641221374	7.190839694656488	1.1908396946564885	0.17091454272863568	0.800599700149925	0.9610194902548725	
1.7104008542529048E12	2.630434782608696	-6.445652173913043	2.793478260869565	3951.6483516483513	128.0	128.0	3.4626315191544914	23.99183678529701	27.454468304451503	481.26250818520884	575.8205987001179	-2.8396946564885495	6.99236641221374	0.7633587786259541	0.15892053973013492	0.8065967016491754	0.9550224887556221	
1.7104008542724365E12	2.7717391304347827	-6.4021739130434785	2.7065217391304346	3953.113553113553	128.0	128.0	3.4567896672236524	24.022055747754067	27.47884541497772	481.25882998214126	575.8278829846244	-2.4732824427480917	8.274809160305344	0.6564885496183206	0.15442278860569714	0.8095952023988006	0.95952023988006	
1.7104008542919685E12	2.7282608695652173	-6.434782608695652	2.5652173913043477	3928.205128205128	128.0	128.0	3.4681848845702277	24.03525400582004	27.503438890390267	481.25529602233127	575.831200579548	-3.801526717557252	4.488549618320611	0.564885496183206	0.1664167916041979	0.793103448275862	0.9550224887556221	
1.7104008543115002E12	2.641304347826087	-6.445652173913043	2.8043478260869565	3951.6483516483513	128.0	128.0	3.47157460112269	24.085306416190438	27.556881017313128	481.2628687933527	575.8249259978445	-2.259541984732824	9.083969465648854	0.6106870229007634	0.1649175412293853	0.815592203898051	0.95952023988006	
1.710400854331032E12	2.7065217391304346	-6.510869565217391	2.641304347826087	3953.113553113553	128.0	128.0	3.4781376693412867	24.070809968806504	27.54894763814779	481.26041665797436	575.8193005108	-3.5877862595419847	6.061068702290076	0.48854961832061067	0.1619190404797601	0.8125937031484257	0.9565217391304347	
1.710400854350564E12	2.717391304347826	-6.5	2.652173913043478	3953.113553113553	128.0	128.0	3.4873692378245877	24.062948711269943	27.55031794909453	481.25688269816436	575.7995391845154	-2.5343511450381677	6.900763358778626	0.916030534351145	0.1664167916041979	0.8185907046476761	0.9505247376311844	
1.7104008543700957E12	2.6630434782608696	-6.478260869565217	2.717391304347826	3929.6703296703295	128.0	128.0	3.473954614872291	24.04160070915231	27.5155553240246	481.260200293088	575.8034337524693	-1.8015267175572518	7.755725190839694	0.916030534351145	0.17391304347826086	0.8245877061469266	0.9655172413793103	
1.7104008543896277E12	2.6739130434782608	-6.445652173913043	2.608695652173913	3967.7655677655675	128.0	128.0	3.473594006728412	24.04087949286455	27.514473499592963	481.2605609012319	575.8017749550074	-2.8244274809160306	7.068702290076335	0.9312977099236641	0.1619190404797601	0.8095952023988006	0.95952023988006	
1.7104008544091594E12	2.641304347826087	-6.413043478260869	2.652173913043478	3951.6483516483513	128.0	128.0	3.4585205863142714	24.03164792438125	27.490168510695522	481.26250818520884	575.7997555494018	-2.854961832061069	7.236641221374046	0.8244274809160305	0.1634182908545727	0.8065967016491754	0.9655172413793103	
1.7104008544286914E12	2.6630434782608696	-6.423913043478261	2.630434782608696	3947.252747252747	128.0	128.0	3.4629200056695946	24.02977276203308	27.492692767702675	481.2627245500952	575.7960773463342	-3.9083969465648853	6.961832061068702	0.564885496183206	0.15442278860569714	0.8020989505247376	0.95952023988006	
1.7104008544482231E12	2.684782608695652	-6.489130434782608	2.652173913043478	3926.7399267399264	128.0	128.0	3.4565011807085493	24.021046044951206	27.477547225659755	481.2576039144521	575.8036501173557	-4.580152671755725	5.923664122137405	0.732824427480916	0.18440779610194902	0.8020989505247376	0.952023988005997	
1.7104008544677551E12	2.6739130434782608	-6.5	2.684782608695652	3945.7875457875457	128.0	128.0	3.46659820873716	24.012968422528317	27.479566631265477	481.25810876585354	575.8061743743627	-3.49618320610687	7.145038167938931	0.7633587786259541	0.15742128935532235	0.8095952023988006	0.952023988005997	
1.7104008544872869E12	2.7065217391304346	-6.478260869565217	2.5869565217391304	3951.6483516483513	128.0	128.0	3.4686176143428824	24.00352048915869	27.47213810350157	481.26135423914843	575.8115834965209	-3.709923664122137	6.305343511450381	1.2213740458015268	0.16941529235382308	0.7976011994002998	0.95952023988006	
1.7104008545068188E12	2.684782608695652	-6.467391304347826	2.652173913043478	3951.6483516483513	128.0	128.0	3.459313924230805	24.00590050290829	27.465214427139095	481.25854149562616	575.8045876985298	-2.4885496183206106	6.854961832061068	0.8396946564885496	0.17091454272863568	0.8035982008995503	0.9505247376311844	
1.7104008545263506E12	2.6739130434782608	-6.456521739130435	2.684782608695652	3926.7399267399264	128.0	128.0	3.459963018889787	24.009939314119734	27.46990233300952	481.2599118065729	575.8059580094765	-3.297709923664122	7.98473282442748	1.2519083969465647	0.1619190404797601	0.8125937031484257	0.9565217391304347	
1.7104008545458826E12	2.684782608695652	-6.478260869565217	2.641304347826087	3953.113553113553	128.0	128.0	3.4675357899112456	24.011165381808922	27.478701171720168	481.25796452259596	575.8053810364463	-3.679389312977099	6.213740458015267	0.8244274809160305	0.1634182908545727	0.8065967016491754	0.9610194902548725	
1.7104008545654143E12	2.684782608695652	-6.467391304347826	2.6630434782608696	3951.6483516483513	128.0	128.0	3.470420655062277	24.019098760974263	27.48951941603654	481.25738754956575	575.8209593082619	-2.900763358778626	6.748091603053435	0.8244274809160305	0.14992503748125938	0.8125937031484257	0.9565217391304347	
1.7104008545849463E12	2.684782608695652	-6.5	2.6739130434782608	3950.18315018315	128.0	128.0	3.478714642371493	24.07773364516898	27.556448287540473	481.25911846865637	575.8066792257642	-2.763358778625954	7.312977099236641	0.7633587786259541	0.15892053973013492	0.8185907046476761	0.9400299850074962	
1.710400854604478E12	2.684782608695652	-6.467391304347826	2.684782608695652	3951.6483516483513	128.0	128.0	3.4992693065725935	24.079753050774702	27.579022357347295	481.26351788801173	575.8050204283023	-3.0534351145038165	6.351145038167939	0.6106870229007634	0.1634182908545727	0.800599700149925	0.9610194902548725	
1.71040085462401E12	2.684782608695652	-6.434782608695652	2.7065217391304346	3951.6483516483513	128.0	128.0	3.5175160786528683	24.061722643580755	27.579238722233622	481.2651045638448	575.8140356318994	-2.2442748091603053	6.65648854961832	0.6106870229007634	0.1649175412293853	0.8125937031484257	0.9460269865067465	
1.7104008546435417E12	2.7282608695652173	-6.423913043478261	2.6739130434782608	3953.113553113553	128.0	128.0	3.4720073308953445	24.004385948703998	27.476393279599343	481.2645997124433	575.8044434552721	-2.1221374045801524	5.9541984732824424	1.0687022900763359	0.17991004497751123	0.8050974512743628	0.9565217391304347	
1.7104008546630737E12	2.75	-6.434782608695652	2.652173913043478	3951.6483516483513	128.0	128.0	3.4751085609327035	23.983037946586364	27.458146507519068	481.26423910429946	575.8137471453842	-2.3206106870229006	6.900763358778626	0.7938931297709924	0.14392803598200898	0.8215892053973013	0.9730134932533733	
1.7104008546826055E12	2.7282608695652173	-6.445652173913043	2.6739130434782608	3929.6703296703295	128.0	128.0	3.4836910347570225	24.039220695402708	27.52291173015973	481.26496032058725	575.8361048503048	-2.015267175572519	6.854961832061068	1.282442748091603	0.14842578710644677	0.8110944527736131	0.9550224887556221	
1.7104008547021375E12	2.6630434782608696	-6.467391304347826	2.6630434782608696	3953.113553113553	128.0	128.0	3.8263408930708045	25.19785466168579	29.02419555475659	481.2746246188432	575.2426880887375	-2.16793893129771	7.740458015267175	0.9007633587786259	0.1619190404797601	0.8050974512743628	0.95952023988006	
1.7104008547216692E12	2.6956521739130435	-6.5	2.7282608695652173	3953.113553113553	128.0	128.0	3.439841084461342	24.46423345377844	27.904074538239783	481.2754900783885	574.9490088163625	-2.351145038167939	5.221374045801526	0.5190839694656488	0.17391304347826086	0.8110944527736131	0.9505247376311844	
1.7104008547412012E12	2.8043478260869565	-6.423913043478261	2.608695652173913	3951.6483516483513	128.0	128.0	3.5048226719883293	23.89591501902521	27.40073769101354	481.2754900783885	575.5282176170609	-1.2061068702290076	7.419847328244274	0.5038167938931297	0.15742128935532235	0.8050974512743628	0.9490254872563718	
1.710400854760733E12	2.619565217391304	-6.543478260869565	2.760869565217391	3951.6483516483513	128.0	128.0	3.50532752338976	24.02306545055693	27.52839297394669	481.27274945649503	575.808338023226	-2.4427480916030535	9.099236641221374	0.24427480916030533	0.14992503748125938	0.8050974512743628	0.9460269865067465	
1.710400854780265E12	2.684782608695652	-6.380434782608695	2.760869565217391	3948.7179487179483	128.0	128.0	3.492057143695014	24.012679936013217	27.50473707970823	481.2713791455483	575.8402157831449	-1.6030534351145038	10.274809160305344	1.5725190839694656	0.1649175412293853	0.815592203898051	0.9565217391304347	
1.7104008547997966E12	2.75	-6.315217391304348	2.6739130434782608	3951.6483516483513	128.0	128.0	3.503596604299141	24.046000128507632	27.549596732806773	481.2719561185785	575.8429564050384	1.4198473282442747	6.412213740458015	1.4198473282442747	0.1664167916041979	0.800599700149925	0.9430284857571214	
1.7104008548193286E12	2.652173913043478	-6.489130434782608	2.619565217391304	3950.18315018315	128.0	128.0	3.5253773361894294	24.06727600899649	27.59265334518592	481.2718118753209	575.8547122305289	-5.007633587786259	8.99236641221374	1.099236641221374	0.14992503748125938	0.8125937031484257	0.9640179910044977	
1.7104008548388604E12	2.5978260869565215	-6.576086956521739	2.7282608695652173	3938.461538461538	128.0	128.0	3.543479865012153	24.100812566377233	27.644292431389385	481.2722446050936	575.8885372744247	-4.717557251908397	6.1679389312977095	0.42748091603053434	0.1634182908545727	0.8185907046476761	0.9655172413793103	
1.7104008548583923E12	2.684782608695652	-6.489130434782608	2.7391304347826084	3953.113553113553	128.0	128.0	3.5702369892879715	24.125910893191207	27.696147882479178	481.2687106452836	575.9115440740043	-2.1068702290076335	7.236641221374046	0.549618320610687	0.15892053973013492	0.8035982008995503	0.9655172413793103	
1.710400854877924E12	2.760869565217391	-6.456521739130435	2.6630434782608696	3951.6483516483513	128.0	128.0	3.597354721707669	24.182886979924085	27.780241701631752	481.26849428039725	575.9372914954772	-2.564885496183206	5.419847328244274	0.5954198473282443	0.15442278860569714	0.8125937031484257	0.9700149925037481	
1.710400854897456E12	2.75	-6.391304347826087	2.641304347826087	3950.18315018315	128.0	128.0	3.641998009919883	24.258903176653764	27.90090118657365	481.26806155062457	576.0037876372085	-1.7557251908396947	6.99236641221374	0.6412213740458015	0.1619190404797601	0.8050974512743628	0.9490254872563718	
1.7104008549169878E12	2.7065217391304346	-6.380434782608695	2.6630434782608696	3925.274725274725	128.0	128.0	3.6432240776090716	24.32200960183258	27.965233679441653	481.2686385236548	576.0149664896687	-1.4351145038167938	7.129770992366412	1.083969465648855	0.17091454272863568	0.8185907046476761	0.9580209895052474	
1.7104008549365198E12	2.652173913043478	-6.391304347826087	2.75	3951.6483516483513	128.0	128.0	3.610336614887311	24.32035080437074	27.93068741925805	481.2709464157756	575.983016608121	-1.4045801526717556	7.49618320610687	0.9923664122137404	0.1664167916041979	0.800599700149925	0.9610194902548725	
1.7104008549560515E12	2.7065217391304346	-6.434782608695652	2.7065217391304346	3923.8095238095234	128.0	128.0	3.580406138945358	24.2778711650218	27.858277303967157	481.2731100646389	575.9295023595694	-2.16793893129771	7.801526717557252	1.2061068702290076	0.1634182908545727	0.8035982008995503	0.9550224887556221	
1.7104008549755833E12	2.717391304347826	-6.467391304347826	2.6956521739130435	3951.6483516483513	128.0	128.0	3.520977916834106	24.14624919250598	27.667227109340086	481.2715955104346	575.8399994182587	-2.015267175572519	7.236641221374046	1.3435114503816794	0.17091454272863568	0.8140929535232384	0.9610194902548725	
1.7104008549951152E12	2.7065217391304346	-6.456521739130435	2.760869565217391	3928.205128205128	128.0	128.0	3.50121659054954	24.09295130884067	27.59416789939021	481.27411976744173	575.8081216583397	-1.6335877862595418	7.816793893129771	0.8244274809160305	0.15892053973013492	0.8065967016491754	0.9655172413793103	
1.710400855014647E12	2.6630434782608696	-6.5	2.652173913043478	3951.6483516483513	128.0	128.0	3.4666703303659356	24.04037464146312	27.507044971829057	481.27361491604034	575.8020634415226	-2.259541984732824	7.129770992366412	0.9923664122137404	0.1649175412293853	0.8095952023988006	0.95952023988006	
1.710400855034179E12	2.6630434782608696	-6.510869565217391	2.8260869565217392	3951.6483516483513	128.0	128.0	3.4685454927141066	24.025012734533878	27.493558227247984	481.2729658213813	575.8036501173557	-2.5343511450381677	3.4198473282442747	0.6717557251908397	0.16941529235382308	0.8125937031484257	0.9745127436281859	
1.7104008550537107E12	2.717391304347826	-6.369565217391304	2.760869565217391	3950.18315018315	128.0	128.0	3.471863087637793	24.02566182919286	27.497524916830653	481.27476886210076	575.8065349825067	1.0687022900763359	6.65648854961832	1.0381679389312977	0.15892053973013492	0.8140929535232384	0.9655172413793103	
1.7104008550732427E12	2.6630434782608696	-6.445652173913043	2.7065217391304346	3951.6483516483513	128.0	128.0	3.4915522922935835	24.048884993658664	27.540437285952247	481.2777979705093	575.8222574975798	-2.687022900763359	6.687022900763359	1.4961832061068703	0.17391304347826086	0.800599700149925	0.9475262368815592	
1.7104008550927744E12	2.6630434782608696	-6.489130434782608	2.8369565217391304	3948.7179487179483	128.0	128.0	3.4940044276719604	24.083791861986146	27.577796289658107	481.27686038933524	575.8017749550074	-1.2671755725190839	7.190839694656488	1.8778625954198473	0.1634182908545727	0.8140929535232384	0.9475262368815592	
1.7104008551123064E12	2.7282608695652173	-6.510869565217391	2.793478260869565	3950.18315018315	128.0	128.0	3.496600806307889	24.086243997364523	27.582844803672412	481.2796731328575	575.8032895092117	-1.8931297709923662	6.763358778625954	1.099236641221374	0.1664167916041979	0.8035982008995503	0.9685157421289355	
1.7104008551318381E12	2.6739130434782608	-6.467391304347826	2.75	3951.6483516483513	128.0	128.0	3.4887395487713277	24.08033002380491	27.569069572576236	481.27700463259276	575.7954282516752	-1.8015267175572518	7.511450381679389	1.5572519083969465	0.1664167916041979	0.8215892053973013	0.9580209895052474	
1.71040085515137E12	2.641304347826087	-6.423913043478261	2.782608695652174	3929.6703296703295	128.0	128.0	3.476695236765771	24.075569996305706	27.552265233071477	481.2770767542216	575.7918942918652	-1.3893129770992365	8.183206106870228	1.6335877862595418	0.1649175412293853	0.8020989505247376	0.952023988005997	
