"sep=	"
Shimmer_6D72_TimestampSync_Unix_CAL	Shimmer_6D72_Accel_LN_X_CAL	Shimmer_6D72_Accel_LN_Y_CAL	Shimmer_6D72_Accel_LN_Z_CAL	Shimmer_6D72_Battery_CAL	Shimmer_6D72_ECG_EMG_Status1_CAL	Shimmer_6D72_ECG_EMG_Status2_CAL	Shimmer_6D72_ECG_LA-RA_24BIT_CAL	Shimmer_6D72_ECG_LL-LA_24BIT_CAL	Shimmer_6D72_ECG_LL-RA_24BIT_CAL	Shimmer_6D72_ECG_RESP_24BIT_CAL	Shimmer_6D72_ECG_Vx-RL_24BIT_CAL	Shimmer_6D72_Gyro_X_CAL	Shimmer_6D72_Gyro_Y_CAL	Shimmer_6D72_Gyro_Z_CAL	Shimmer_6D72_Mag_X_CAL	Shimmer_6D72_Mag_Y_CAL	Shimmer_6D72_Mag_Z_CAL	
ms	m/(s^2)	m/(s^2)	m/(s^2)	mV	no_units	no_units	mV	mV	mV	mV	mV	deg/s	deg/s	deg/s	local_flux	local_flux	local_flux	
1.710400739933014E12	2.4130434782608696	-6.4021739130434785	2.7282608695652173	3953.113553113553	128.0	128.0	3.7030129078642022	23.076180586359573	26.779193494223776	481.8297447955305	574.578303644455	-2.595419847328244	7.236641221374046	1.0534351145038168	0.16941529235382308	0.8125937031484257	0.9640179910044977	
1.710400739952546E12	2.4782608695652173	-6.413043478260869	2.684782608695652	3953.113553113553	128.0	128.0	3.7001280427131706	23.066588409732393	26.766716452445564	481.8266435654931	574.573759981842	-4.137404580152672	6.580152671755725	0.549618320610687	0.15442278860569714	0.8125937031484257	0.9565217391304347	
1.7104007399720776E12	2.4782608695652173	-6.423913043478261	2.6630434782608696	3950.18315018315	128.0	128.0	3.692122541919058	23.06615567995974	26.758278221878797	481.82823024132614	574.5761399955917	-3.969465648854962	7.145038167938931	0.8091603053435115	0.17241379310344826	0.8095952023988006	0.9640179910044977	
1.7104007399916096E12	2.510869565217391	-6.434782608695652	2.6739130434782608	3953.113553113553	128.0	128.0	3.6901752579421117	23.06168413897564	26.75185939691775	481.8296005522729	574.5738321034709	-3.969465648854962	7.190839694656488	0.8091603053435115	0.1649175412293853	0.7976011994002998	0.952023988005997	
1.7104007400111414E12	2.4891304347826084	-6.478260869565217	2.6956521739130435	3929.6703296703295	128.0	128.0	3.6800782299135006	23.05526531401459	26.735343543928092	481.82613871409166	574.5687835894565	-4.1679389312977095	8.015267175572518	0.4580152671755725	0.1634182908545727	0.8035982008995503	0.9580209895052474	
1.7104007400306733E12	2.4782608695652173	-6.467391304347826	2.684782608695652	3953.113553113553	128.0	128.0	3.6943583124111075	23.085917006244305	26.780275318655413	481.82411930848593	574.5928722134677	-3.9083969465648853	7.114503816793893	0.42748091603053434	0.17991004497751123	0.7946026986506747	0.952023988005997	
1.710400740050205E12	2.467391304347826	-6.489130434782608	2.6956521739130435	3953.113553113553	128.0	128.0	3.6881558523363895	23.10452438646846	26.79268023880485	481.8205132270472	574.5932328216115	-4.198473282442748	6.458015267175572	0.2900763358778626	0.17391304347826086	0.8215892053973013	0.9550224887556221	
1.710400740069737E12	2.467391304347826	-6.5	2.7282608695652173	3941.391941391941	128.0	128.0	3.704455340439718	23.194820665695747	26.899276006135466	481.8239029435996	574.556090182792	-3.847328244274809	6.473282442748092	0.0916030534351145	0.1664167916041979	0.8065967016491754	0.9580209895052474	
1.7104007400892688E12	2.5217391304347827	-6.467391304347826	2.6739130434782608	3953.113553113553	128.0	128.0	3.731068221457985	23.126160875101196	26.85722909655918	481.8200083756457	574.5744811981299	-4.305343511450381	5.358778625954198	0.12213740458015267	0.1664167916041979	0.8110944527736131	0.9580209895052474	
1.7104007401088008E12	2.510869565217391	-6.445652173913043	2.7065217391304346	3954.5787545787543	128.0	128.0	3.6858479602155643	23.05288530026499	26.738733260480554	481.82736478178083	574.5959013218762	-3.7404580152671754	6.809160305343511	0.2595419847328244	0.15592203898050974	0.7961019490254873	0.9475262368815592	
1.7104007401283325E12	2.4891304347826084	-6.413043478260869	2.6956521739130435	3951.6483516483513	128.0	128.0	3.6870740279047527	23.024036648754674	26.711110676659427	481.8280859980686	574.5889776455138	-3.5267175572519083	6.183206106870228	0.5954198473282443	0.1634182908545727	0.8035982008995503	0.9505247376311844	
1.7104007401478645E12	2.4891304347826084	-6.413043478260869	2.7282608695652173	3954.5787545787543	128.0	128.0	3.7090711246813686	23.070482977686286	26.779554102367655	481.82101807844856	574.6336930553548	-3.2671755725190836	6.305343511450381	0.5343511450381679	0.1619190404797601	0.7871064467766117	0.9640179910044977	
1.7104007401673962E12	2.4891304347826084	-6.489130434782608	2.75	3929.6703296703295	128.0	128.0	3.996547936981671	24.27390447543913	28.270452412420802	481.82101807844856	574.0440987401126	-4.427480916030534	6.244274809160305	0.6717557251908397	0.1619190404797601	0.7841079460269865	0.95952023988006	
1.7104007401869282E12	2.510869565217391	-6.554347826086956	2.7282608695652173	3953.113553113553	128.0	128.0	3.629304603255344	23.447390609668567	27.076695212923912	481.82794175481104	573.7910960663672	-3.068702290076336	5.862595419847328	0.6564885496183206	0.17391304347826086	0.8110944527736131	0.9685157421289355	
1.71040074020646E12	2.608695652173913	-6.391304347826087	2.5217391304347827	3953.113553113553	128.0	128.0	3.731789437745743	22.934750072330246	26.66653951007599	481.82916782250027	574.510076583633	-3.6946564885496183	-0.32061068702290074	-0.6564885496183206	0.1619190404797601	0.8125937031484257	0.9565217391304347	
1.710400740225992E12	2.369565217391304	-6.5	2.760869565217391	3941.391941391941	128.0	128.0	3.7206105852854954	23.04971194859886	26.770322533884354	481.82758114666717	574.6173214456227	-5.740458015267175	11.49618320610687	-0.04580152671755725	0.1664167916041979	0.8035982008995503	0.9505247376311844	
1.7104007402455237E12	2.4456521739130435	-6.445652173913043	2.7391304347826084	3953.113553113553	128.0	128.0	3.707917178620956	23.080219397571017	26.788136576191974	481.81935928098676	574.6527331653516	-3.099236641221374	6.625954198473282	0.3969465648854962	0.16941529235382308	0.8050974512743628	0.952023988005997	
1.7104007402650557E12	2.543478260869565	-6.304347826086956	2.6630434782608696	3953.113553113553	128.0	128.0	3.710657800514436	23.09543706124271	26.806094861757146	481.8212344433349	574.660305936373	-3.312977099236641	8.396946564885496	0.8854961832061068	0.17241379310344826	0.8020989505247376	0.9565217391304347	
1.7104007402845874E12	2.543478260869565	-6.391304347826087	2.641304347826087	3950.18315018315	128.0	128.0	3.7149850982409833	23.104380143210907	26.81936524145189	481.8226768759104	574.6691047750837	-6.091603053435114	6.290076335877862	0.5954198473282443	0.17691154422788605	0.7946026986506747	0.9565217391304347	
1.7104007403041194E12	2.467391304347826	-6.5978260869565215	2.641304347826087	3953.113553113553	128.0	128.0	3.7408046413427165	23.129117861881003	26.86992250322372	481.81993625401697	574.6850436550432	-7.908396946564885	6.152671755725191	-0.12213740458015267	0.16941529235382308	0.8125937031484257	0.9565217391304347	
1.7104007403236511E12	2.4347826086956523	-6.608695652173913	2.717391304347826	3928.205128205128	128.0	128.0	3.7536422912648075	23.151547688430274	26.90518997969508	481.8212344433349	574.693121277466	-4.916030534351145	6.687022900763359	-0.2900763358778626	0.14992503748125938	0.8095952023988006	0.9490254872563718	
1.710400740343183E12	2.5543478260869565	-6.510869565217391	2.619565217391304	3953.113553113553	128.0	128.0	3.782851550919003	23.209100748193357	26.99195229911236	481.8197198891306	574.7474288639341	-4.580152671755725	5.267175572519084	0.0916030534351145	0.1664167916041979	0.8185907046476761	0.9505247376311844	
1.7104007403627148E12	2.5760869565217392	-6.445652173913043	2.5543478260869565	3953.113553113553	128.0	128.0	3.812132932201974	23.245233684210028	27.057366616412	481.81813321329753	574.7645938115828	-4.061068702290076	6.305343511450381	0.24427480916030533	0.16941529235382308	0.8050974512743628	0.9565217391304347	
1.7104007403822468E12	2.5	-6.391304347826087	2.619565217391304	3938.461538461538	128.0	128.0	3.8322548666304193	23.330769935938115	27.163024802568533	481.82029686216083	574.7933703414643	-3.312977099236641	7.557251908396946	0.48854961832061067	0.17091454272863568	0.8110944527736131	0.9505247376311844	
1.7104007404017786E12	2.4891304347826084	-6.423913043478261	2.6956521739130435	3953.113553113553	128.0	128.0	3.824826338866513	23.346853059155116	27.171679398021627	481.8208017135623	574.7661804874159	-3.9847328244274807	7.419847328244274	0.5038167938931297	0.1634182908545727	0.800599700149925	0.9475262368815592	
1.7104007404213105E12	2.5217391304347827	-6.445652173913043	2.652173913043478	3953.113553113553	128.0	128.0	3.7940304033792502	23.33221236851363	27.12624277189288	481.818638064699	574.7360336465877	-4.366412213740458	6.290076335877862	0.48854961832061067	0.17091454272863568	0.8065967016491754	0.9505247376311844	
1.7104007404408423E12	2.5543478260869565	-6.467391304347826	2.641304347826087	3950.18315018315	128.0	128.0	3.7485937772505022	23.205783153269667	26.95437693052017	481.815104104889	574.6607386661457	-4.244274809160305	6.061068702290076	0.32061068702290074	0.14692653673163417	0.8200899550224887	0.9565217391304347	
1.7104007404603743E12	2.5543478260869565	-6.467391304347826	2.630434782608696	3953.113553113553	128.0	128.0	3.7134705440366917	23.116063847072585	26.829534391109277	481.81488774000263	574.6302312171736	-3.679389312977099	6.2748091603053435	0.564885496183206	0.16941529235382308	0.7901049475262368	0.95952023988006	
1.710400740479906E12	2.543478260869565	-6.5	2.6739130434782608	3948.7179487179483	128.0	128.0	3.689670406540681	23.054544097726836	26.744214504267518	481.8101998341322	574.6134268776688	-4.030534351145038	6.2748091603053435	0.3053435114503817	0.1649175412293853	0.8020989505247376	0.9640179910044977	
1.710400740499438E12	2.619565217391304	-6.543478260869565	2.5543478260869565	3953.113553113553	128.0	128.0	3.669043620710805	23.03968704219902	26.708730662909826	481.8117143883365	574.6178262970241	-4.2748091603053435	1.7557251908396947	-0.21374045801526717	0.1619190404797601	0.815592203898051	0.95952023988006	
1.7104007405189697E12	2.467391304347826	-6.489130434782608	2.7717391304347827	3953.113553113553	128.0	128.0	3.6738757698387827	23.030166987200616	26.7040427570394	481.808324671784	574.6385252044828	-2.1374045801526718	7.083969465648854	0.07633587786259542	0.15442278860569714	0.815592203898051	0.9640179910044977	
1.7104007405385017E12	2.5978260869565215	-6.4021739130434785	2.630434782608696	3938.461538461538	128.0	128.0	3.677265486391245	23.050433164886613	26.72769865127786	481.8072428473524	574.6432131103531	-4.427480916030534	4.778625954198473	-0.33587786259541985	0.15892053973013492	0.8065967016491754	0.9430284857571214	
1.7104007405580334E12	2.5	-6.423913043478261	2.6630434782608696	3953.113553113553	128.0	128.0	3.689742528169457	23.076685437761004	26.76642796593046	481.8114259018214	574.6429246238381	-4.1679389312977095	6.3969465648854955	0.5801526717557252	0.1634182908545727	0.8035982008995503	0.9580209895052474	
1.7104007405775654E12	2.5543478260869565	-6.445652173913043	2.7391304347826084	3953.113553113553	128.0	128.0	3.704815948583597	23.095292817985158	26.800108766568755	481.8101998341322	574.6323948660367	-4.3206106870229	7.526717557251908	0.4427480916030534	0.15742128935532235	0.8200899550224887	0.9490254872563718	
1.7104007405970972E12	2.5978260869565215	-6.510869565217391	2.608695652173913	3951.6483516483513	128.0	128.0	3.7107299221432117	23.10228861597641	26.81301853811962	481.81207499648036	574.6332603255821	-4.473282442748092	5.969465648854961	0.8549618320610687	0.16941529235382308	0.8095952023988006	0.95952023988006	
1.7104007406166292E12	2.5760869565217392	-6.521739130434782	2.630434782608696	3954.5787545787543	128.0	128.0	3.708566273279938	23.083392749237152	26.79195902251709	481.81279621276815	574.6374433800511	-2.9923664122137406	7.465648854961832	0.6564885496183206	0.1664167916041979	0.8110944527736131	0.9550224887556221	
1.710400740636161E12	2.543478260869565	-6.478260869565217	2.630434782608696	3950.18315018315	128.0	128.0	3.701714718546238	23.06904054511077	26.77075526365701	481.81041619901856	574.6272021087649	-2.3206106870229006	6.870229007633587	0.6412213740458015	0.1634182908545727	0.8110944527736131	0.9760119940029984	
1.7104007406556929E12	2.4891304347826084	-6.413043478260869	2.6630434782608696	3951.6483516483513	128.0	128.0	3.692411028434161	23.055553800529697	26.74796482896386	481.8105604422761	574.6324669876656	-2.5038167938931295	7.038167938931298	0.6412213740458015	0.15442278860569714	0.8050974512743628	0.952023988005997	
1.7104007406752246E12	2.510869565217391	-6.445652173913043	2.5543478260869565	3951.6483516483513	128.0	128.0	3.6895982849119053	23.043581610152913	26.73317989506482	481.81178650996526	574.619773581001	-4.290076335877862	6.015267175572519	0.4580152671755725	0.16941529235382308	0.8050974512743628	0.9565217391304347	
1.7104007406947566E12	2.5	-6.445652173913043	2.5978260869565215	3935.531135531135	128.0	128.0	3.6875067576774074	23.03658581216166	26.72409256983907	481.81279621276815	574.6275627169089	-3.0076335877862594	6.534351145038167	0.3511450381679389	0.17091454272863568	0.8140929535232384	0.9730134932533733	
1.7104007407142883E12	2.5543478260869565	-6.434782608695652	2.608695652173913	3953.113553113553	128.0	128.0	3.690752230972318	23.02136814848997	26.712120379462288	481.80911800970057	574.6207111621751	-3.099236641221374	6.549618320610687	0.9312977099236641	0.15142428785607195	0.8035982008995503	0.9430284857571214	
1.7104007407338203E12	2.543478260869565	-6.467391304347826	2.5978260869565215	3953.113553113553	128.0	128.0	3.6895982849119053	23.021584513376297	26.711182798288203	481.8096949827308	574.6072965392228	-4.442748091603053	6.854961832061068	0.732824427480916	0.15892053973013492	0.8035982008995503	0.9475262368815592	
1.710400740753352E12	2.4891304347826084	-6.478260869565217	2.619565217391304	3951.6483516483513	128.0	128.0	3.6839006762386175	23.077334532419986	26.761235208658604	481.8107768071624	574.6013825656632	-4.183206106870228	7.312977099236641	0.6717557251908397	0.15892053973013492	0.8140929535232384	0.9550224887556221	
1.710400740772884E12	2.5217391304347827	-6.478260869565217	2.5869565217391304	3951.6483516483513	128.0	128.0	3.6831794599508596	23.101206791544772	26.784386251495633	481.811570145079	574.5909249294907	-3.877862595419847	5.83206106870229	0.48854961832061067	0.15592203898050974	0.800599700149925	0.9505247376311844	
1.7104007407924158E12	2.5543478260869565	-6.467391304347826	2.619565217391304	3950.18315018315	128.0	128.0	3.716211165930172	23.162293811117866	26.87850497704804	481.8124356046243	574.565105386389	-3.3435114503816794	6.870229007633587	0.5038167938931297	0.1829085457271364	0.793103448275862	0.9505247376311844	
1.7104007408119478E12	2.5760869565217392	-6.478260869565217	2.619565217391304	3951.6483516483513	128.0	128.0	3.7227021125199933	23.092263709576574	26.814965822096568	481.81178650996526	574.6094601880861	-3.282442748091603	6.65648854961832	1.0534351145038168	0.1619190404797601	0.8125937031484257	0.95952023988006	
1.7104007408314795E12	2.5543478260869565	-6.445652173913043	2.5978260869565215	3951.6483516483513	128.0	128.0	3.6805109596861554	23.028147581594894	26.70865854128105	481.8140222804573	574.6202784324024	-3.4045801526717554	6.564885496183206	0.8244274809160305	0.16941529235382308	0.8095952023988006	0.95952023988006	
1.7104007408510115E12	2.543478260869565	-6.413043478260869	2.5978260869565215	3935.531135531135	128.0	128.0	3.68094368945881	23.01350689095341	26.69445058041222	481.8111374153063	574.6132826344112	-3.0534351145038165	7.068702290076335	0.6412213740458015	0.1664167916041979	0.7856071964017991	0.9400299850074962	
1.7104007408705432E12	2.5217391304347827	-6.456521739130435	2.6630434782608696	3926.7399267399264	128.0	128.0	3.724216666724285	23.12060750968546	26.844824176409745	481.8096949827308	574.6502089083444	-3.145038167938931	7.404580152671755	1.0534351145038168	0.17091454272863568	0.7961019490254873	0.9730134932533733	
1.7104007408900752E12	2.5217391304347827	-6.510869565217391	2.619565217391304	3951.6483516483513	128.0	128.0	3.9899848687630737	24.389659689624274	28.379644558387348	481.81705138886593	573.8527600589705	-3.3740458015267176	5.679389312977099	0.9618320610687022	0.15442278860569714	0.7976011994002998	0.952023988005997	
1.710400740909607E12	2.4891304347826084	-6.478260869565217	2.5978260869565215	3951.6483516483513	128.0	128.0	3.6697648369985627	23.191430949143285	26.86119578614185	481.813805915571	573.8648764926048	-2.3664122137404577	6.580152671755725	0.9618320610687022	0.17091454272863568	0.8035982008995503	0.9730134932533733	
1.710400740929139E12	2.641304347826087	-6.4021739130434785	2.4565217391304346	3953.113553113553	128.0	128.0	3.746141641872125	22.948164695282543	26.694306337154668	481.8165465374645	574.5638793186998	-3.4198473282442747	-0.7022900763358778	-0.2595419847328244	0.17091454272863568	0.8035982008995503	0.9475262368815592	
1.7104007409486707E12	2.4456521739130435	-6.521739130434782	2.7282608695652173	3951.6483516483513	128.0	128.0	3.720754828543047	23.0442307048119	26.764985533354945	481.8143828886012	574.6258317978183	-3.709923664122137	10.442748091603052	0.6412213740458015	0.17241379310344826	0.8125937031484257	0.95952023988006	
1.7104007409682026E12	2.532608695652174	-6.467391304347826	2.652173913043478	3950.18315018315	128.0	128.0	3.704527462068494	23.07538724844304	26.779914710511534	481.8171235104947	574.663839896183	-2.030534351145038	5.83206106870229	0.5954198473282443	0.15742128935532235	0.8050974512743628	0.9340329835082458	
1.7104007409877344E12	2.5869565217391304	-6.33695652173913	2.608695652173913	3953.113553113553	128.0	128.0	3.7239281802091817	23.081950316661636	26.805878496870818	481.8150319832602	574.6569162198206	-1.5419847328244274	7.893129770992366	0.7786259541984732	0.1649175412293853	0.815592203898051	0.952023988005997	
1.7104007410072664E12	2.5652173913043477	-6.434782608695652	2.543478260869565	3934.065934065934	128.0	128.0	3.736910073388824	23.0901000607133	26.827010134102125	481.8143828886012	574.6630465582665	-5.343511450381679	7.419847328244274	0.9465648854961831	0.16941529235382308	0.8095952023988006	0.952023988005997	
1.710400741026798E12	2.5	-6.554347826086956	2.543478260869565	3926.7399267399264	128.0	128.0	3.761431427172593	23.113178981921553	26.874610409094146	481.81164226670774	574.6851157766719	-5.557251908396946	6.33587786259542	0.8854961832061068	0.1664167916041979	0.8140929535232384	0.9580209895052474	
1.71040074104633E12	2.4891304347826084	-6.554347826086956	2.6956521739130435	3951.6483516483513	128.0	128.0	3.7707351172846697	23.142965214605955	26.913700331890624	481.80926225295815	574.715983833788	-3.679389312977099	7.3893129770992365	0.7480916030534351	0.1619190404797601	0.8095952023988006	0.9565217391304347	
1.7104007410658618E12	2.5760869565217392	-6.510869565217391	2.5543478260869565	3951.6483516483513	128.0	128.0	3.8039110665215334	23.200446152740263	27.004357219261795	481.8114259018214	574.7596174191973	-4.427480916030534	4.9465648854961835	0.6564885496183206	0.15442278860569714	0.8095952023988006	0.9460269865067465	
1.7104007410853938E12	2.5652173913043477	-6.478260869565217	2.5543478260869565	3951.6483516483513	128.0	128.0	3.8281439337901992	23.262038023714787	27.090181957504985	481.80500707686036	574.790918206086	-3.4045801526717554	6.717557251908397	0.564885496183206	0.16941529235382308	0.8050974512743628	0.9565217391304347	
1.7104007411049255E12	2.5652173913043477	-6.445652173913043	2.630434782608696	3951.6483516483513	128.0	128.0	3.851006490112125	23.32399050283319	27.174996992945314	481.80839679341284	574.8326045075183	-3.3435114503816794	7.206106870229007	0.6106870229007634	0.1649175412293853	0.8050974512743628	0.9565217391304347	
1.7104007411244575E12	2.543478260869565	-6.445652173913043	2.608695652173913	3953.113553113553	128.0	128.0	3.8459579760978198	23.335890571581196	27.181848547679014	481.8064495094359	574.8126268163475	-3.2061068702290076	7.83206106870229	0.5343511450381679	0.1619190404797601	0.8095952023988006	0.9490254872563718	
1.7104007411439893E12	2.5217391304347827	-6.434782608695652	2.5869565217391304	3953.113553113553	128.0	128.0	3.792371605917407	23.274587187121774	27.06695879303918	481.8066658743222	574.7467076476464	-3.2671755725190836	7.740458015267175	1.0687022900763359	0.1619190404797601	0.8020989505247376	0.9460269865067465	
1.7104007411635212E12	2.5543478260869565	-6.434782608695652	2.6630434782608696	3932.6007326007325	128.0	128.0	3.7602053594834044	23.170659920055858	26.930865279539262	481.8052234417467	574.6802115059152	-3.4198473282442747	7.068702290076335	1.129770992366412	0.15592203898050974	0.8035982008995503	0.9430284857571214	
1.710400741183053E12	2.5543478260869565	-6.5	2.608695652173913	3928.205128205128	128.0	128.0	3.7298421537687965	23.094283115182296	26.824125268951093	481.8078919420114	574.6416985561489	-3.618320610687023	6.229007633587786	0.7633587786259541	0.1619190404797601	0.8020989505247376	0.9565217391304347	
1.710400741202585E12	2.5217391304347827	-6.543478260869565	2.619565217391304	3953.113553113553	128.0	128.0	3.7149129766122075	23.03305185235165	26.74796482896386	481.8086131582991	574.625903919447	-3.969465648854962	6.99236641221374	0.6106870229007634	0.1649175412293853	0.8050974512743628	0.9490254872563718	
1.7104007412221167E12	2.684782608695652	-6.532608695652174	2.4891304347826084	3951.6483516483513	128.0	128.0	3.712388719605055	23.0105499041736	26.722938623778656	481.81149802345016	574.622009351493	-2.519083969465649	1.83206106870229	0.22900763358778625	0.15892053973013492	0.8140929535232384	0.9430284857571214	
1.7104007412416487E12	2.4456521739130435	-6.423913043478261	2.760869565217391	3951.6483516483513	128.0	128.0	3.693781339380901	23.019204499626696	26.712985839007597	481.8068822392085	574.6460258538755	-1.7862595419847327	10.748091603053435	1.1450381679389312	0.15892053973013492	0.8140929535232384	0.9505247376311844	
1.7104007412611804E12	2.630434782608696	-6.413043478260869	2.5978260869565215	3926.7399267399264	128.0	128.0	3.6919061770327306	23.042499785721276	26.734405962754007	481.8070264824661	574.6475404080797	-3.099236641221374	4.702290076335878	0.6412213740458015	0.1619190404797601	0.7946026986506747	0.9670164917541229	
1.7104007412807124E12	2.5543478260869565	-6.445652173913043	2.5652173913043477	3953.113553113553	128.0	128.0	3.7069795974468707	23.079786667798363	26.786766265245234	481.80652163106464	574.6541755979271	-4.030534351145038	6.045801526717557	0.4580152671755725	0.15442278860569714	0.8050974512743628	0.952023988005997	
1.7104007413002441E12	2.532608695652174	-6.456521739130435	2.7391304347826084	3953.113553113553	128.0	128.0	3.713759030551795	23.08909035791044	26.802849388462235	481.8065937526934	574.6367221637634	-3.5877862595419847	8.122137404580153	0.6870229007633587	0.1634182908545727	0.7961019490254873	0.9430284857571214	
1.7104007413197761E12	2.5869565217391304	-6.532608695652174	2.5978260869565215	3932.6007326007325	128.0	128.0	3.7379918978204607	23.07041085605751	26.80840275387797	481.8037810091712	574.6302312171736	-4.137404580152672	5.770992366412213	0.4427480916030534	0.1634182908545727	0.8110944527736131	0.9475262368815592	
1.7104007413393079E12	2.5760869565217392	-6.532608695652174	2.5869565217391304	3953.113553113553	128.0	128.0	3.7387131141082186	23.0626938417785	26.80140695588672	481.80471859034526	574.6419149210352	-2.519083969465649	6.473282442748092	0.6106870229007634	0.1649175412293853	0.8050974512743628	0.952023988005997	
1.7104007413588398E12	2.532608695652174	-6.478260869565217	2.652173913043478	3953.113553113553	128.0	128.0	3.72515424789837	23.056779868218886	26.781934116117256	481.80839679341284	574.629437879257	-2.030534351145038	7.511450381679389	1.0229007633587786	0.1634182908545727	0.7886056971514243	0.9610194902548725	
1.7104007413783716E12	2.5760869565217392	-6.423913043478261	2.5869565217391304	3953.113553113553	128.0	128.0	3.734385816381671	23.035431866101252	26.769817682482923	481.81092105041995	574.6313130416052	-1.7862595419847327	6.65648854961832	0.9465648854961831	0.16941529235382308	0.7946026986506747	0.9385307346326837	
1.7104007413979033E12	2.5760869565217392	-6.445652173913043	2.5543478260869565	3935.531135531135	128.0	128.0	3.7374149247902544	23.035071257957373	26.772486182747627	481.8069543608373	574.6262645275908	-2.8702290076335877	6.244274809160305	0.8396946564885496	0.18590704647676162	0.8035982008995503	0.9685157421289355	
1.7104007414174353E12	2.510869565217391	-6.467391304347826	2.5978260869565215	3950.18315018315	128.0	128.0	3.737559168047806	23.029950622314292	26.767509790362098	481.8065937526934	574.6282839331966	-2.9618320610687023	6.8396946564885495	0.5190839694656488	0.1649175412293853	0.7946026986506747	0.9490254872563718	
1.710400741436967E12	2.5543478260869565	-6.445652173913043	2.5978260869565215	3951.6483516483513	128.0	128.0	3.7390016006233218	23.01934874288425	26.758350343507573	481.8070264824661	574.6273463520225	-2.16793893129771	5.32824427480916	0.47328244274809156	0.17391304347826086	0.8140929535232384	0.9475262368815592	
1.710400741456499E12	2.532608695652174	-6.456521739130435	2.619565217391304	3951.6483516483513	128.0	128.0	3.73200580263207	23.01747358053608	26.74947938316815	481.8068822392085	574.6248942166441	-2.7022900763358777	6.229007633587786	0.8549618320610687	0.15142428785607195	0.8185907046476761	0.9550224887556221	
1.7104007414760308E12	2.532608695652174	-6.510869565217391	2.630434782608696	3932.6007326007325	128.0	128.0	3.7243609099818364	23.00968444462829	26.734045354610128	481.80500707686036	574.6173214456227	-3.6488549618320607	6.65648854961832	0.6564885496183206	0.17241379310344826	0.8095952023988006	0.9640179910044977	
1.7104007414955627E12	2.5543478260869565	-6.5	2.619565217391304	3953.113553113553	128.0	128.0	3.7195287608538585	23.00030863288744	26.719837393741297	481.8027713063683	574.6138596074414	-3.5725190839694654	6.229007633587786	0.6870229007633587	0.1619190404797601	0.8125937031484257	0.9565217391304347	
1.7104007415150945E12	2.608695652173913	-6.467391304347826	2.5978260869565215	3951.6483516483513	128.0	128.0	3.7098644625979023	23.007088065992363	26.716952528590266	481.79844400864175	574.6187638781981	-2.946564885496183	6.366412213740458	0.4580152671755725	0.15592203898050974	0.8110944527736131	0.9610194902548725	
1.7104007415346265E12	2.5760869565217392	-6.434782608695652	2.608695652173913	3950.18315018315	128.0	128.0	3.7178699633920154	23.000380754516215	26.71825071790823	481.80031917098995	574.6266972573635	-2.900763358778626	6.8396946564885495	0.6870229007633587	0.15442278860569714	0.8020989505247376	0.9565217391304347	
1.7104007415541582E12	2.5543478260869565	-6.456521739130435	2.641304347826087	3951.6483516483513	128.0	128.0	3.7222693827473385	23.051154381174374	26.773423763921713	481.8001028061036	574.6199178242586	-3.1755725190839694	6.748091603053435	0.5954198473282443	0.17091454272863568	0.800599700149925	0.9475262368815592	
1.7104007415736902E12	2.5978260869565215	-6.456521739130435	2.5869565217391304	3929.6703296703295	128.0	128.0	3.7352512759269807	23.101855886203754	26.837107162130735	481.80082402239134	574.6173935672514	-2.946564885496183	5.969465648854961	0.7022900763358778	0.1634182908545727	0.8035982008995503	0.9580209895052474	
1.710400741593222E12	2.5869565217391304	-6.434782608695652	2.5869565217391304	3951.6483516483513	128.0	128.0	3.776793334101836	23.058799273824608	26.835592607926444	481.8030597928834	574.6151577967594	-2.595419847328244	6.5038167938931295	0.5801526717557252	0.15742128935532235	0.8020989505247376	0.9565217391304347	
1.710400741612754E12	2.5543478260869565	-6.478260869565217	2.641304347826087	3951.6483516483513	128.0	128.0	3.7253706127846975	23.020286324058336	26.745656936843034	481.80385313079995	574.6230190542959	-3.2061068702290076	7.2824427480916025	0.9007633587786259	0.1649175412293853	0.8020989505247376	0.9460269865067465	
1.7104007416322856E12	2.543478260869565	-6.467391304347826	2.5978260869565215	3929.6703296703295	128.0	128.0	3.707268083961974	22.99944317334213	26.706711257304104	481.8040694956863	574.61688871585	-2.9923664122137406	6.946564885496183	0.8091603053435115	0.17691154422788605	0.8050974512743628	0.9565217391304347	
1.7104007416518176E12	2.5760869565217392	-6.510869565217391	2.5869565217391304	3953.113553113553	128.0	128.0	3.7100808274842296	22.990283726487604	26.700364553971834	481.8078919420114	574.6690326534549	-3.1755725190839694	5.572519083969466	0.7480916030534351	0.14842578710644677	0.8140929535232384	0.9580209895052474	
1.7104007416713494E12	2.510869565217391	-6.467391304347826	2.6630434782608696	3951.6483516483513	128.0	128.0	3.9401488232790025	23.40894978153107	27.349098604810074	481.80370888754237	574.589554618544	-2.549618320610687	7.893129770992366	0.7786259541984732	0.17841079460269865	0.8065967016491754	0.9475262368815592	
1.7104007416908813E12	2.5869565217391304	-6.5	2.5978260869565215	3951.6483516483513	128.0	128.0	3.750757426113776	23.850406271267687	27.601163697381462	481.8064495094359	573.6510358632846	-3.2213740458015265	5.816793893129771	1.2366412213740459	0.15742128935532235	0.7976011994002998	0.952023988005997	
1.710400741710413E12	2.5543478260869565	-6.391304347826087	2.510869565217391	3953.113553113553	128.0	128.0	3.739939181797407	22.858589632343012	26.59852881414042	481.80356464428485	574.2397647189814	-2.183206106870229	8.045801526717558	1.129770992366412	0.17241379310344826	0.8020989505247376	0.9565217391304347	
1.710400741729945E12	2.4891304347826084	-6.434782608695652	2.5543478260869565	3951.6483516483513	128.0	128.0	3.7449876958117123	23.017257215649753	26.762244911461465	481.80298767125464	574.6260481627045	-4.5038167938931295	4.67175572519084	0.32061068702290074	0.1634182908545727	0.8035982008995503	0.9550224887556221	
1.7104007417494768E12	2.543478260869565	-6.5	2.7282608695652173	3953.113553113553	128.0	128.0	3.731356707973088	23.041706447804746	26.773063155777834	481.80017492773237	574.6519398274351	-3.16030534351145	7.648854961832061	0.8244274809160305	0.15742128935532235	0.8020989505247376	0.9460269865067465	
1.7104007417690088E12	2.5978260869565215	-6.413043478260869	2.641304347826087	3953.113553113553	128.0	128.0	3.7474398311900896	23.04675496181905	26.79419479300914	481.8034925226561	574.6753072351584	-1.7099236641221374	6.427480916030534	1.0534351145038168	0.16941529235382308	0.7946026986506747	0.952023988005997	
1.7104007417885405E12	2.619565217391304	-6.4021739130434785	2.5543478260869565	3931.135531135531	128.0	128.0	3.754147142666238	23.05843866568073	26.812585808346967	481.8016173603079	574.6851878983007	-2.7938931297709924	7.603053435114504	1.2061068702290076	0.1619190404797601	0.7976011994002998	0.9490254872563718	
1.7104007418080725E12	2.4782608695652173	-6.5	2.652173913043478	3953.113553113553	128.0	128.0	3.768210860277517	23.07553149170059	26.843742351978108	481.7988046167856	574.6911739934891	-5.648854961832061	8.732824427480915	1.4045801526717556	0.1664167916041979	0.8035982008995503	0.9550224887556221	
1.7104007418276042E12	2.5	-6.565217391304348	2.6956521739130435	3953.113553113553	128.0	128.0	3.8045601611805155	23.09745646684843	26.902016628028946	481.801256752164	574.7174262663634	-4.763358778625954	8.595419847328245	0.9923664122137404	0.15142428785607195	0.8185907046476761	0.9610194902548725	
1.7104007418471362E12	2.532608695652174	-6.543478260869565	2.630434782608696	3951.6483516483513	128.0	128.0	3.801314687885605	23.14101793062901	26.942332618514612	481.79974219795974	574.7755562991567	-3.9389312977099236	7.480916030534351	1.0229007633587786	0.16941529235382308	0.7871064467766117	0.9565217391304347	
1.710400741866668E12	2.5760869565217392	-6.5	2.608695652173913	3953.113553113553	128.0	128.0	3.8433615974618913	23.195974611756164	27.039336209218053	481.80212221170933	574.8346960347529	-3.49618320610687	7.633587786259541	1.3587786259541985	0.17241379310344826	0.8095952023988006	0.9670164917541229	
1.7104007418862E12	2.5760869565217392	-6.423913043478261	2.5543478260869565	3932.6007326007325	128.0	128.0	3.8743017762067056	23.25064280636821	27.124944582574916	481.80089614402016	574.8715501870573	-2.748091603053435	6.99236641221374	1.083969465648855	0.15442278860569714	0.8020989505247376	0.9565217391304347	
1.7104007419057317E12	2.5217391304347827	-6.434782608695652	2.5760869565217392	3953.113553113553	128.0	128.0	3.8859854800683835	23.29946914904942	27.185454629117803	481.7990931033007	574.8736417142918	-2.916030534351145	8.412213740458014	0.8396946564885496	0.1664167916041979	0.800599700149925	0.9730134932533733	
1.7104007419252637E12	2.543478260869565	-6.413043478260869	2.608695652173913	3953.113553113553	128.0	128.0	3.862329585829924	23.308700717532723	27.171030303362645	481.803204036141	574.857486469446	-2.717557251908397	8.595419847328245	1.3282442748091603	0.17391304347826086	0.8065967016491754	0.9475262368815592	
1.7104007419447954E12	2.5760869565217392	-6.434782608695652	2.619565217391304	3929.6703296703295	128.0	128.0	3.839178542992895	23.254032522920674	27.093211065913568	481.80241069822443	574.7951733821837	-2.4885496183206106	8.015267175572518	1.4045801526717556	0.1619190404797601	0.8095952023988006	0.952023988005997	
1.7104007419643274E12	2.5217391304347827	-6.478260869565217	2.641304347826087	3953.113553113553	128.0	128.0	3.783500645577985	23.115775360557482	26.899276006135466	481.79945371144464	574.7127383604931	-2.396946564885496	8.106870229007633	1.4198473282442747	0.14392803598200898	0.793103448275862	0.9475262368815592	
1.7104007419838591E12	2.510869565217391	-6.521739130434782	2.684782608695652	3953.113553113553	128.0	128.0	3.761431427172593	23.02980637905674	26.791237806229333	481.80176160356547	574.6767496677339	-2.8396946564885495	7.236641221374046	1.2213740458015268	0.17691154422788605	0.8050974512743628	0.9640179910044977	
1.710400742003391E12	2.4891304347826084	-6.543478260869565	2.4782608695652173	3951.6483516483513	128.0	128.0	3.7376312896765818	22.986966131563918	26.7245974212405	481.8050791984891	574.6765333028476	-2.946564885496183	7.236641221374046	0.8702290076335878	0.15892053973013492	0.800599700149925	0.9550224887556221	
1.7104007420229229E12	2.652173913043478	-6.521739130434782	2.641304347826087	3951.6483516483513	128.0	128.0	3.7359724922147386	22.97218119766488	26.70815368987962	481.8064495094359	574.6675180992506	-2.0610687022900764	2.091603053435114	0.38167938931297707	0.1664167916041979	0.8035982008995503	0.9550224887556221	
1.7104007420424548E12	2.467391304347826	-6.358695652173913	2.782608695652174	3953.113553113553	128.0	128.0	3.72652455884511	22.987182496450245	26.713707055295355	481.80983922598836	574.6928327909509	-0.8854961832061068	10.51908396946565	1.1603053435114503	0.15142428785607195	0.8035982008995503	0.9430284857571214	
1.7104007420619866E12	2.5978260869565215	-6.3478260869565215	2.5217391304347827	3953.113553113553	128.0	128.0	3.7328712621773796	23.003770471068677	26.736641733246056	481.80753133386753	574.6910297502316	-2.916030534351145	4.213740458015267	0.8244274809160305	0.15592203898050974	0.8110944527736131	0.9505247376311844	
1.7104007420815186E12	2.532608695652174	-6.423913043478261	2.652173913043478	3953.113553113553	128.0	128.0	3.7393622087672007	23.020646932202215	26.760009140969416	481.81221923973794	574.6857648713309	-3.9541984732824424	8.366412213740457	1.0229007633587786	0.1634182908545727	0.7811094452773613	0.9610194902548725	
1.7104007421010503E12	2.5543478260869565	-6.5	2.6630434782608696	3929.6703296703295	128.0	128.0	3.7591235350517676	23.02656090576183	26.785684440813597	481.81005559087464	574.6745860188706	-3.8167938931297707	8.763358778625953	1.0534351145038168	0.1634182908545727	0.8035982008995503	0.9505247376311844	
1.7104007421205823E12	2.5978260869565215	-6.565217391304348	2.5869565217391304	3954.5787545787543	128.0	128.0	3.7580417106201307	23.024902108299987	26.782943818920117	481.81099317204877	574.6581422875098	-3.7709923664122136	6.442748091603053	1.5877862595419847	0.1619190404797601	0.8020989505247376	0.95952023988006	
1.710400742140114E12	2.5543478260869565	-6.576086956521739	2.6630434782608696	3953.113553113553	128.0	128.0	3.7736199824357013	22.995620727017016	26.769240709452717	481.81063256390485	574.6466028269057	-1.8625954198473282	7.541984732824427	1.282442748091603	0.15442278860569714	0.7871064467766117	0.952023988005997	
1.710400742159646E12	2.5	-6.489130434782608	2.652173913043478	3950.18315018315	128.0	128.0	3.7448434525541607	23.002688646637043	26.747532099191204	481.80926225295815	574.6553295439875	-1.129770992366412	7.786259541984733	1.099236641221374	0.15592203898050974	0.8065967016491754	0.9550224887556221	
1.7104007421791777E12	2.532608695652174	-6.423913043478261	2.619565217391304	3953.113553113553	128.0	128.0	3.7484495339929507	22.991437672548017	26.739887206540967	481.81135378019263	574.649054962284	-0.8702290076335878	6.824427480916031	1.5725190839694656	0.15742128935532235	0.8095952023988006	0.9415292353823088	
1.7104007421987097E12	2.5543478260869565	-6.423913043478261	2.5760869565217392	3936.9963369963366	128.0	128.0	3.73611673547229	22.991004942775362	26.727121678247652	481.809622861102	574.6502089083444	-1.7099236641221374	6.534351145038167	1.3587786259541985	0.16941529235382308	0.7901049475262368	0.9565217391304347	
1.7104007422182415E12	2.510869565217391	-6.456521739130435	2.6739130434782608	3926.7399267399264	128.0	128.0	3.732799140548604	22.98588430713228	26.718683447680885	481.8127240911394	574.6492713271704	-1.3282442748091603	7.603053435114504	1.3740458015267174	0.1619190404797601	0.8020989505247376	0.95952023988006	
1.7104007422377734E12	2.5543478260869565	-6.434782608695652	2.641304347826087	3953.113553113553	128.0	128.0	3.7335203568363617	22.981052158004303	26.714572514840665	481.80781982038263	574.645521002474	-2.091603053435114	7.145038167938931	1.2061068702290076	0.1619190404797601	0.8095952023988006	0.952023988005997	
1.7104007422573052E12	2.510869565217391	-6.434782608695652	2.619565217391304	3929.6703296703295	128.0	128.0	3.73200580263207	22.976580617020204	26.708586419652274	481.8096949827308	574.6491992055415	-2.687022900763359	6.748091603053435	1.1755725190839694	0.15592203898050974	0.7961019490254873	0.9580209895052474	
1.7104007422768372E12	2.510869565217391	-6.489130434782608	2.652173913043478	3953.113553113553	128.0	128.0	3.7312845863443123	22.97665273864898	26.707937324993292	481.8084689150416	574.6525168004653	-2.748091603053435	7.6183206106870225	1.3282442748091603	0.1649175412293853	0.815592203898051	0.9640179910044977	
1.710400742296369E12	2.5217391304347827	-6.478260869565217	2.630434782608696	3953.113553113553	128.0	128.0	3.7315009512306396	22.96857511622609	26.70007606745673	481.80911800970057	574.6546083276997	-2.7938931297709924	6.824427480916031	1.1450381679389312	0.17091454272863568	0.793103448275862	0.9550224887556221	
1.710400742315901E12	2.5	-6.478260869565217	2.641304347826087	3951.6483516483513	128.0	128.0	3.7353233975557565	23.011775971862793	26.74709936941855	481.8029155496259	574.656771976563	-2.610687022900763	7.343511450381679	0.9465648854961831	0.15892053973013492	0.7961019490254873	0.9505247376311844	
1.7104007423354326E12	2.5543478260869565	-6.478260869565217	2.6739130434782608	3953.113553113553	128.0	128.0	3.7431846550923176	23.054399854469285	26.797584509561602	481.8084689150416	574.6425640156942	-2.1526717557251906	6.8396946564885495	0.7480916030534351	0.15892053973013492	0.8035982008995503	0.9400299850074962	
1.7104007423549646E12	2.543478260869565	-6.467391304347826	2.684782608695652	3936.9963369963366	128.0	128.0	3.753786534522359	23.103586805294373	26.857373339816732	481.8107768071624	574.6199178242586	-2.5343511450381677	6.916030534351145	0.7175572519083969	0.17241379310344826	0.8050974512743628	0.95952023988006	
1.7104007423744963E12	2.5	-6.445652173913043	2.6739130434782608	3953.113553113553	128.0	128.0	3.7697254144818086	22.99403405118395	26.763759465665757	481.80558404989057	574.6499204218293	-2.564885496183206	6.900763358778626	0.9465648854961831	0.1634182908545727	0.7961019490254873	0.9685157421289355	
1.7104007423940283E12	2.510869565217391	-6.445652173913043	2.630434782608696	3953.113553113553	128.0	128.0	3.7356840056996354	22.968863602741195	26.70454760844083	481.8030597928834	574.6499204218293	-3.0381679389312977	6.916030534351145	1.083969465648855	0.15592203898050974	0.8215892053973013	0.9505247376311844	
1.71040074241356E12	2.5543478260869565	-6.413043478260869	2.5869565217391304	3929.6703296703295	128.0	128.0	3.737270681532703	22.94802045202499	26.685291133557694	481.8063773878071	574.670619329288	-2.7938931297709924	6.916030534351145	1.114503816793893	0.1634182908545727	0.8140929535232384	0.9505247376311844	
1.710400742433092E12	2.543478260869565	-6.456521739130435	2.6956521739130435	3953.113553113553	128.0	128.0	3.875888452039773	23.17354478520689	27.049433237246664	481.8058725364057	574.6975928184501	-2.2900763358778624	7.007633587786259	1.1450381679389312	0.16941529235382308	0.8125937031484257	0.9565217391304347	
1.7104007424526238E12	2.543478260869565	-6.532608695652174	2.6739130434782608	3953.113553113553	128.0	128.0	3.847616773559663	24.161466856177675	28.009083629737336	481.80623314454954	573.7328217903164	-2.396946564885496	7.49618320610687	1.129770992366412	0.17091454272863568	0.8035982008995503	0.9505247376311844	
1.7104007424721558E12	2.4782608695652173	-6.5	2.6630434782608696	3951.6483516483513	128.0	128.0	3.691834055403955	22.955881709561552	26.647715764965508	481.81034407738974	574.0922038665061	-1.5267175572519083	5.755725190839694	1.129770992366412	0.17391304347826086	0.8065967016491754	0.9475262368815592	
1.7104007424916875E12	2.619565217391304	-6.4021739130434785	2.4782608695652173	3951.6483516483513	128.0	128.0	3.792371605917407	22.875970944877977	26.668342550795384	481.81041619901856	574.5416658570368	-0.6564885496183206	3.297709923664122	0.4580152671755725	0.1619190404797601	0.815592203898051	0.9565217391304347	
1.7104007425112195E12	2.358695652173913	-6.489130434782608	2.902173913043478	3941.391941391941	128.0	128.0	3.7666241844444497	23.00463593061399	26.77126011505844	481.8096949827308	574.6817981817483	-4.595419847328244	11.236641221374045	0.5954198473282443	0.1649175412293853	0.8125937031484257	0.9640179910044977	
1.7104007425307512E12	2.5652173913043477	-6.434782608695652	2.717391304347826	3953.113553113553	128.0	128.0	3.7650375086113823	23.016535999361995	26.781573507973377	481.810271955761	574.7075456032212	-1.618320610687023	8.48854961832061	0.7938931297709924	0.1664167916041979	0.793103448275862	0.9610194902548725	
1.7104007425502832E12	2.5978260869565215	-6.315217391304348	2.641304347826087	3951.6483516483513	128.0	128.0	3.7759999961853024	23.039831285456575	26.815831281641877	481.8045022254589	574.7193014287117	-1.816793893129771	7.862595419847328	1.648854961832061	0.1619190404797601	0.8050974512743628	0.9490254872563718	
1.710400742569815E12	2.4891304347826084	-6.423913043478261	2.652173913043478	3929.6703296703295	128.0	128.0	3.785880659327586	23.049639826970083	26.835520486297668	481.8061610229208	574.7303360379143	-3.5572519083969465	8.564885496183205	1.7709923664122136	0.1649175412293853	0.8095952023988006	0.95952023988006	
1.710400742589347E12	2.4456521739130435	-6.5978260869565215	2.641304347826087	3954.5787545787543	128.0	128.0	3.8066516884150134	23.09320129075066	26.899852979165672	481.806088901292	574.753919810524	-6.366412213740458	6.244274809160305	0.7480916030534351	0.15142428785607195	0.8065967016491754	0.9580209895052474	
1.7104007426088787E12	2.5	-6.576086956521739	2.7065217391304346	3953.113553113553	128.0	128.0	3.830956677312455	23.111736549346038	26.94269322665849	481.81070468553366	574.7689211093094	-3.679389312977099	6.641221374045801	0.48854961832061067	0.1664167916041979	0.8065967016491754	0.9610194902548725	
1.7104007426284106E12	2.543478260869565	-6.5	2.5869565217391304	3951.6483516483513	128.0	128.0	3.86514232935218	23.172462960775256	27.037605290127434	481.80926225295815	574.8244547634667	-3.297709923664122	5.83206106870229	0.7480916030534351	0.1634182908545727	0.8185907046476761	0.9580209895052474	
1.7104007426479424E12	2.543478260869565	-6.391304347826087	2.5978260869565215	3951.6483516483513	128.0	128.0	3.901275265368851	23.22078445205503	27.122059717423884	481.8023385765957	574.8440718464938	-2.1374045801526718	6.687022900763359	1.1755725190839694	0.1664167916041979	0.800599700149925	0.9550224887556221	
1.7104007426674744E12	2.510869565217391	-6.391304347826087	2.652173913043478	3942.8571428571427	128.0	128.0	3.913824428775839	23.27768841715913	27.19151284593497	481.8042858605726	574.8398887920248	-2.198473282442748	7.755725190839694	1.114503816793893	0.1664167916041979	0.800599700149925	0.9580209895052474	
1.710400742687006E12	2.5	-6.391304347826087	2.684782608695652	3951.6483516483513	128.0	128.0	3.895433413438012	23.31043163662334	27.20586505006135	481.80370888754237	574.8119777216885	-2.5801526717557253	7.419847328244274	0.8702290076335878	0.1829085457271364	0.8065967016491754	0.9610194902548725	
1.710400742706538E12	2.4891304347826084	-6.445652173913043	2.717391304347826	3953.113553113553	128.0	128.0	3.8542519634070356	23.274875673636878	27.12912763704391	481.8058725364057	574.7713732446878	-2.9923664122137406	7.526717557251908	1.0534351145038168	0.15592203898050974	0.8110944527736131	0.9505247376311844	
1.7104007427260698E12	2.5543478260869565	-6.521739130434782	2.6739130434782608	3926.7399267399264	128.0	128.0	3.790280078682909	23.145056741840452	26.93533682052336	481.80897376644305	574.693770372125	-3.480916030534351	7.1603053435114505	0.7938931297709924	0.17091454272863568	0.8065967016491754	0.9550224887556221	
1.7104007427456018E12	2.5652173913043477	-6.510869565217391	2.7065217391304346	3953.113553113553	128.0	128.0	3.76301810300566	23.068752058595667	26.831770161601327	481.81135378019263	574.655834395389	-3.145038167938931	7.129770992366412	1.1755725190839694	0.16941529235382308	0.8125937031484257	0.952023988005997	
1.7104007427651335E12	2.5217391304347827	-6.532608695652174	2.684782608695652	3953.113553113553	128.0	128.0	3.737198559903927	23.012425066521775	26.749623626425702	481.81041619901856	574.6495598136854	-2.6259541984732824	7.374045801526718	1.099236641221374	0.15592203898050974	0.8035982008995503	0.9430284857571214	
1.7104007427846655E12	2.4347826086956523	-6.532608695652174	2.7717391304347827	3951.6483516483513	128.0	128.0	3.735107032669429	23.004347444098883	26.739454476768312	481.8120028748516	574.648405867625	-2.8091603053435112	5.068702290076335	0.4580152671755725	0.15442278860569714	0.8050974512743628	0.9565217391304347	
1.7104007428041973E12	2.5869565217391304	-6.358695652173913	2.652173913043478	3953.113553113553	128.0	128.0	3.733448235207586	23.000669241031318	26.734117476238904	481.8149598616314	574.6559786386465	-0.2595419847328244	6.488549618320611	0.7786259541984732	0.1664167916041979	0.8110944527736131	0.9505247376311844	
1.7104007428237292E12	2.4565217391304346	-6.380434782608695	2.7391304347826084	3942.8571428571427	128.0	128.0	3.7462858851296765	23.033484582124306	26.779770467253982	481.813156820912	574.6556901521313	-2.6717557251908395	6.885496183206107	0.732824427480916	0.17391304347826086	0.8035982008995503	0.9505247376311844	
1.710400742843261E12	2.510869565217391	-6.456521739130435	2.8478260869565215	3951.6483516483513	128.0	128.0	3.7625853732330055	23.048197394394567	26.810782767627572	481.8156089562904	574.661604125691	-2.854961832061069	8.198473282442748	1.114503816793893	0.1634182908545727	0.8065967016491754	0.9610194902548725	
1.710400742862793E12	2.5869565217391304	-6.489130434782608	2.652173913043478	3953.113553113553	128.0	128.0	3.7698696577393602	23.067021139505048	26.836890797244408	481.8129404560257	574.6553295439875	-4.061068702290076	6.2748091603053435	0.6412213740458015	0.16941529235382308	0.8095952023988006	0.95952023988006	
1.7104007428823247E12	2.5217391304347827	-6.510869565217391	2.7065217391304346	3928.205128205128	128.0	128.0	3.7725381580040644	23.05245257049234	26.824990728496402	481.81395015882856	574.6527331653516	-3.4045801526717554	7.1603053435114505	1.3740458015267174	0.15592203898050974	0.8140929535232384	0.9580209895052474	
1.7104007429018564E12	2.5	-6.510869565217391	2.717391304347826	3926.7399267399264	128.0	128.0	3.7628738597481086	23.038316731252284	26.801190591000392	481.8159695644343	574.6540313546695	-1.7709923664122136	8.16793893129771	1.4351145038167938	0.1634182908545727	0.8110944527736131	0.9505247376311844	
1.7104007429213884E12	2.4782608695652173	-6.467391304347826	2.6956521739130435	3953.113553113553	128.0	128.0	3.754435629181341	23.029085162768983	26.783520791950323	481.8134453074271	574.6468191917919	-1.2366412213740459	7.038167938931298	1.3129770992366412	0.17391304347826086	0.7961019490254873	0.9610194902548725	
1.7104007429409202E12	2.4456521739130435	-6.423913043478261	2.6630434782608696	3951.6483516483513	128.0	128.0	3.7480889258490717	23.02706575716326	26.77515468301233	481.81459925348753	574.6324669876656	-1.1450381679389312	6.427480916030534	1.3587786259541985	0.15892053973013492	0.8140929535232384	0.9580209895052474	
1.7104007429604521E12	2.4782608695652173	-6.434782608695652	2.6630434782608696	3953.113553113553	128.0	128.0	3.7509737910001033	23.01098263394626	26.761956424946362	481.8135174290559	574.6385252044828	-1.4351145038167938	7.099236641221374	1.099236641221374	0.1619190404797601	0.815592203898051	0.952023988005997	
1.710400742979984E12	2.4891304347826084	-6.434782608695652	2.6956521739130435	3953.113553113553	128.0	128.0	3.7333039919500344	23.02706575716326	26.760369749113295	481.81236348299547	574.6385973261115	-1.7099236641221374	7.083969465648854	0.9770992366412213	0.1634182908545727	0.8035982008995503	0.9475262368815592	
1.7104007429995159E12	2.4782608695652173	-6.413043478260869	2.684782608695652	3951.6483516483513	128.0	128.0	3.734457938010447	23.030888203488377	26.765346141498824	481.81034407738974	574.6277069601664	-1.9541984732824427	7.32824427480916	1.0076335877862594	0.1664167916041979	0.800599700149925	0.9580209895052474	
1.7104007430190476E12	2.5	-6.445652173913043	2.684782608695652	3953.113553113553	128.0	128.0	3.7333039919500344	23.01509356678648	26.748397558736514	481.81366167231346	574.6320342578929	-2.396946564885496	6.595419847328244	0.9007633587786259	0.16941529235382308	0.8125937031484257	0.9490254872563718	
1.7104007430385796E12	2.510869565217391	-6.478260869565217	2.7282608695652173	3929.6703296703295	128.0	128.0	3.7387852357369944	23.067093261133824	26.805878496870818	481.81748411863856	574.6319621362642	-3.068702290076336	7.267175572519084	0.8396946564885496	0.17391304347826086	0.8140929535232384	0.9295352323838081	
1.7104007430581113E12	2.510869565217391	-6.489130434782608	2.7391304347826084	3954.5787545787543	128.0	128.0	3.7549404805827717	23.116063847072585	26.871004327655356	481.8165465374645	574.6055656201322	-2.6564885496183206	7.480916030534351	0.9007633587786259	0.1649175412293853	0.7976011994002998	0.9490254872563718	
1.7104007430776433E12	2.5217391304347827	-6.489130434782608	2.7391304347826084	3953.113553113553	128.0	128.0	3.7835727672067607	23.113034738664002	26.89660750587076	481.81633017257815	574.5977043625957	-2.7938931297709924	8.13740458015267	1.0687022900763359	0.1649175412293853	0.8050974512743628	0.9565217391304347	
1.710400743097175E12	2.510869565217391	-6.467391304347826	2.7282608695652173	3951.6483516483513	128.0	128.0	3.7439058713800755	23.04473555621333	26.788641427593404	481.81546471303284	574.6172493239939	-2.748091603053435	7.267175572519084	0.9312977099236641	0.16941529235382308	0.8050974512743628	0.9460269865067465	
1.710400743116707E12	2.467391304347826	-6.413043478260869	2.75	3928.205128205128	128.0	128.0	3.7376312896765818	23.012352944893	26.74998423456958	481.81633017257815	574.6163838644486	-2.0	8.030534351145038	1.0229007633587786	0.15592203898050974	0.800599700149925	0.9550224887556221	
1.7104007431362388E12	2.4891304347826084	-6.423913043478261	2.6630434782608696	3951.6483516483513	128.0	128.0	3.750396817969897	22.988769172283313	26.73916599025321	481.81308469928325	574.6746581404994	-2.427480916030534	6.595419847328244	0.7938931297709924	0.17691154422788605	0.7976011994002998	0.95952023988006	
1.7104007431557708E12	2.467391304347826	-6.434782608695652	2.760869565217391	3953.113553113553	128.0	128.0	3.9583955953592773	23.37930779210422	27.3377033874635	481.8086131582991	574.6462422187617	-2.916030534351145	6.65648854961832	0.6564885496183206	0.1664167916041979	0.8110944527736131	0.9505247376311844	
1.7104007431753025E12	2.543478260869565	-6.510869565217391	2.717391304347826	3953.113553113553	128.0	128.0	3.673370918437352	23.815860011084084	27.489230929521437	481.80738709060995	573.7527273598585	-3.3740458015267176	6.366412213740458	0.5954198473282443	0.15592203898050974	0.800599700149925	0.9505247376311844	
1.7104007431948345E12	2.4782608695652173	-6.423913043478261	2.6630434782608696	3928.205128205128	128.0	128.0	3.707195962333198	22.90590142081993	26.61309738315313	481.80796406364016	574.2308216370132	-2.3664122137404577	5.221374045801526	0.3511450381679389	0.1649175412293853	0.8050974512743628	0.9460269865067465	
1.7104007432143662E12	2.5869565217391304	-6.4021739130434785	2.510869565217391	3953.113553113553	128.0	128.0	3.772682401261616	23.01285779629443	26.785540197556045	481.8063773878071	574.6394627856569	-2.4885496183206106	0.9007633587786259	-0.07633587786259542	0.17841079460269865	0.8245877061469266	0.9580209895052474	
1.7104007432338982E12	2.380434782608696	-6.467391304347826	3.0543478260869565	3951.6483516483513	128.0	128.0	3.753065318234601	23.05807805753685	26.81114337577145	481.80767557712505	574.6625417068651	-4.763358778625954	12.732824427480915	0.7786259541984732	0.17241379310344826	0.8050974512743628	0.9565217391304347	
1.71040074325343E12	2.5978260869565215	-6.434782608695652	2.630434782608696	3953.113553113553	128.0	128.0	3.7532816831209286	23.07452178889773	26.82780347201866	481.8063052661783	574.6771102758778	-2.549618320610687	6.748091603053435	0.5801526717557252	0.15892053973013492	0.8110944527736131	0.9430284857571214	
1.710400743272962E12	2.5543478260869565	-6.3478260869565215	2.717391304347826	3951.6483516483513	128.0	128.0	3.764532657209952	23.090027939084525	26.854560596294476	481.8070264824661	574.696366750761	-3.801526717557252	7.801526717557252	1.4809160305343512	0.14992503748125938	0.7976011994002998	0.9490254872563718	
1.7104007432924937E12	2.4782608695652173	-6.5	2.6956521739130435	3947.252747252747	128.0	128.0	3.777875158533473	23.096879493818225	26.874754652351697	481.8039973740575	574.7050934678427	-4.687022900763359	8.290076335877862	1.0381679389312977	0.16941529235382308	0.8125937031484257	0.9565217391304347	
1.7104007433120256E12	2.467391304347826	-6.58695652173913	2.7391304347826084	3953.113553113553	128.0	128.0	3.7976364848180397	23.139142768280838	26.936779253098877	481.79945371144464	574.7273790511346	-7.8473282442748085	5.3893129770992365	0.3053435114503817	0.17691154422788605	0.8095952023988006	0.9640179910044977	
1.7104007433315574E12	2.4782608695652173	-6.521739130434782	2.7391304347826084	3951.6483516483513	128.0	128.0	3.827134230987338	23.16294290577685	26.990077136764185	481.80176160356547	574.7389906333674	-3.801526717557252	7.709923664122137	0.0	0.1649175412293853	0.8095952023988006	0.95952023988006	
1.7104007433510894E12	2.5217391304347827	-6.434782608695652	2.619565217391304	3926.7399267399264	128.0	128.0	3.865358694238507	23.229655412394457	27.095014106632963	481.79844400864175	574.7924327602902	-4.1679389312977095	6.900763358778626	1.099236641221374	0.1619190404797601	0.8095952023988006	0.9490254872563718	
1.710400743370621E12	2.4891304347826084	-6.391304347826087	2.5869565217391304	3954.5787545787543	128.0	128.0	3.888581858704312	23.290958796853875	27.17954065555819	481.79945371144464	574.804116464152	-4.595419847328244	7.099236641221374	0.7786259541984732	0.1619190404797601	0.8020989505247376	0.9460269865067465	
1.710400743390153E12	2.467391304347826	-6.391304347826087	2.630434782608696	3953.113553113553	128.0	128.0	3.8893751966208456	23.33949665301998	27.22887184964083	481.80082402239134	574.8103910458555	-4.396946564885496	6.595419847328244	0.6412213740458015	0.16941529235382308	0.7841079460269865	0.952023988005997	
1.7104007434096848E12	2.510869565217391	-6.434782608695652	2.7065217391304346	3951.6483516483513	128.0	128.0	3.855550152725	23.352190059684524	27.207740212409522	481.8023385765957	574.7689211093094	-4.549618320610687	6.3206106870229	0.732824427480916	0.15592203898050974	0.8065967016491754	0.9505247376311844	
1.7104007434292168E12	2.510869565217391	-6.489130434782608	2.684782608695652	3953.113553113553	128.0	128.0	3.8287930284491813	23.28288117443099	27.11167420288017	481.80140099542155	574.7164165635606	-4.473282442748092	6.152671755725191	0.41221374045801523	0.1649175412293853	0.8095952023988006	0.95952023988006	
1.7104007434487485E12	2.5760869565217392	-6.510869565217391	2.6956521739130435	3929.6703296703295	128.0	128.0	3.763450832778315	23.145705836499435	26.90915666927775	481.7993815898158	574.6564113684192	-3.465648854961832	6.213740458015267	0.7633587786259541	0.15142428785607195	0.7886056971514243	0.9685157421289355	
1.7104007434682805E12	2.532608695652174	-6.5	2.7282608695652173	3953.113553113553	128.0	128.0	3.7302027619126754	23.091037641887386	26.82124040380006	481.8039252524287	574.6322506227792	-4.229007633587786	6.564885496183206	0.2748091603053435	0.1664167916041979	0.8185907046476761	0.9475262368815592	
1.7104007434878123E12	2.608695652173913	-6.554347826086956	2.6739130434782608	3953.113553113553	128.0	128.0	3.7100808274842296	23.039182190797593	26.749263018281823	481.80140099542155	574.6240287570988	-4.442748091603053	7.190839694656488	0.6717557251908397	0.17391304347826086	0.8065967016491754	0.9610194902548725	
1.7104007435073442E12	2.4456521739130435	-6.467391304347826	2.7717391304347827	3928.205128205128	128.0	128.0	3.7087826381662654	23.03377306863941	26.742555706805675	481.80313191451216	574.6291493927419	-2.595419847328244	6.152671755725191	0.7480916030534351	0.17391304347826086	0.800599700149925	0.9400299850074962	
1.710400743526876E12	2.5652173913043477	-6.358695652173913	2.5978260869565215	3954.5787545787543	128.0	128.0	3.719023909452428	23.052019840719684	26.77104375017211	481.80342040102727	574.6439343266409	-5.251908396946565	6.076335877862595	0.3511450381679389	0.17391304347826086	0.8110944527736131	0.9580209895052474	
1.710400743546408E12	2.4456521739130435	-6.4021739130434785	2.7282608695652173	3951.6483516483513	128.0	128.0	3.745781033728246	23.06081867943033	26.806599713158576	481.79995856284603	574.6419149210352	-4.2748091603053435	7.633587786259541	0.8549618320610687	0.15442278860569714	0.8125937031484257	0.952023988005997	
1.7104007435659397E12	2.510869565217391	-6.445652173913043	2.8043478260869565	3951.6483516483513	128.0	128.0	3.745781033728246	23.07776726219264	26.823548295920887	481.7985161302705	574.6507858813746	-5.206106870229007	5.541984732824427	0.12213740458015267	0.16941529235382308	0.7946026986506747	0.9700149925037481	
1.7104007435854717E12	2.5760869565217392	-6.5	2.6739130434782608	3951.6483516483513	128.0	128.0	3.7477283177051928	23.08259941132062	26.83032772902581	481.801256752164	574.652588922094	-4.564885496183206	7.0534351145038165	0.366412213740458	0.14992503748125938	0.8020989505247376	0.9640179910044977	
1.7104007436050034E12	2.510869565217391	-6.554347826086956	2.7065217391304346	3951.6483516483513	128.0	128.0	3.755228967097875	23.069473274883425	26.8247022419813	481.8004634142475	574.6430688670956	-3.83206106870229	8.061068702290076	0.8549618320610687	0.1619190404797601	0.8095952023988006	0.9460269865067465	
1.7104007436245354E12	2.4782608695652173	-6.521739130434782	2.7282608695652173	3951.6483516483513	128.0	128.0	3.743401019978645	23.046827083447827	26.79022810342647	481.7972179409526	574.6450161510726	-3.6488549618320607	5.877862595419847	0.7480916030534351	0.17091454272863568	0.7961019490254873	0.9505247376311844	
1.7104007436440671E12	2.4782608695652173	-6.445652173913043	2.641304347826087	3951.6483516483513	128.0	128.0	3.730419126799003	23.040985231516988	26.77140435831599	481.7986603735281	574.6369385286497	-3.7557251908396947	6.2748091603053435	0.8091603053435115	0.17241379310344826	0.8095952023988006	0.9700149925037481	
1.710400743663599E12	2.510869565217391	-6.478260869565217	2.641304347826087	3928.205128205128	128.0	128.0	3.7242887883530607	23.038100366365956	26.762389154719017	481.79700157606624	574.636505798877	-4.519083969465648	7.251908396946565	0.7786259541984732	0.17841079460269865	0.8035982008995503	0.9475262368815592	
1.7104007436831309E12	2.5	-6.445652173913043	2.630434782608696	3953.113553113553	128.0	128.0	3.717581476876912	23.04112947477454	26.75871095165145	481.79974219795974	574.6354239744454	-3.3893129770992365	6.412213740458015	0.9618320610687022	0.15592203898050974	0.8185907046476761	0.9475262368815592	
1.7104007437026628E12	2.5543478260869565	-6.413043478260869	2.5543478260869565	3951.6483516483513	128.0	128.0	3.712316597976279	23.033484582124306	26.745801180100585	481.7986603735281	574.6391742991417	-4.198473282442748	7.114503816793893	0.9312977099236641	0.1634182908545727	0.8035982008995503	0.9550224887556221	
1.7104007437221946E12	2.5	-6.423913043478261	2.630434782608696	3951.6483516483513	128.0	128.0	3.7239281802091817	23.027859095079794	26.751787275288976	481.7929627648548	574.6408330966036	-4.442748091603053	7.8473282442748085	0.7938931297709924	0.15742128935532235	0.8200899550224887	0.95952023988006	
1.7104007437417266E12	2.4456521739130435	-6.478260869565217	2.684782608695652	3953.113553113553	128.0	128.0	3.719312395967531	23.020791175459763	26.740103571427294	481.79447731905907	574.6453767592164	-4.7328244274809155	6.106870229007633	0.22900763358778625	0.15592203898050974	0.800599700149925	0.9550224887556221	
1.7104007437612583E12	2.510869565217391	-6.478260869565217	2.608695652173913	3953.113553113553	128.0	128.0	3.7192402743387554	23.0695453965122	26.788785670850956	481.7974343058389	574.646170097133	-4.381679389312977	6.061068702290076	0.33587786259541985	0.17241379310344826	0.8125937031484257	0.9565217391304347	
1.7104007437807903E12	2.510869565217391	-6.5	2.641304347826087	3951.6483516483513	128.0	128.0	3.7205384636567196	23.104957116241113	26.825495579897833	481.79671308955113	574.6361451907331	-3.9389312977099236	7.404580152671755	0.4580152671755725	0.1634182908545727	0.8035982008995503	0.9550224887556221	
1.710400743800322E12	2.5	-6.489130434782608	2.6630434782608696	3958.974358974359	128.0	128.0	3.7708072389134455	23.136113659872255	26.9069208987857	481.7968573328087	574.6105420125177	-4.366412213740458	5.908396946564885	0.7022900763358778	0.17691154422788605	0.8125937031484257	0.9490254872563718	
1.710400743819854E12	2.510869565217391	-6.456521739130435	2.5978260869565215	3928.205128205128	128.0	128.0	3.747584074447641	23.069112666739546	26.816696741187187	481.7959197516346	574.6360730691043	-3.7404580152671754	6.65648854961832	0.5954198473282443	0.15892053973013492	0.8035982008995503	0.9610194902548725	
1.7104007438393857E12	2.4891304347826084	-6.445652173913043	2.641304347826087	3954.5787545787543	128.0	128.0	3.711379016802194	23.026705149019378	26.738084165821572	481.79995856284603	574.6370827719072	-3.6030534351145036	6.99236641221374	0.564885496183206	0.15742128935532235	0.8020989505247376	0.9670164917541229	
1.7104007438589177E12	2.532608695652174	-6.423913043478261	2.619565217391304	3953.113553113553	128.0	128.0	3.721764531345908	22.983071563610025	26.704836094955933	481.79916522492954	574.6513628544049	-4.244274809160305	5.984732824427481	0.8091603053435115	0.17691154422788605	0.8125937031484257	0.95952023988006	
1.7104007438784495E12	2.5	-6.434782608695652	2.652173913043478	3953.113553113553	128.0	128.0	3.8111953510278886	23.20080676088414	27.01200211191203	481.8003912926187	574.6691768967124	-3.8931297709923665	7.236641221374046	0.732824427480916	0.15442278860569714	0.7946026986506747	0.9565217391304347	
1.7104007438979814E12	2.543478260869565	-6.5	2.619565217391304	3953.113553113553	128.0	128.0	3.9014195086264025	24.358286781106806	28.25970628973321	481.803204036141	573.7301532900517	-4.137404580152672	5.038167938931298	0.5343511450381679	0.1664167916041979	0.800599700149925	0.9400299850074962	
1.7104007439175132E12	2.4565217391304346	-6.467391304347826	2.5978260869565215	3953.113553113553	128.0	128.0	3.7053207999850275	22.96980118391528	26.675121983900308	481.79945371144464	574.0527533355657	-2.748091603053435	7.221374045801526	0.5954198473282443	0.1664167916041979	0.800599700149925	0.9580209895052474	
1.7104007439370452E12	2.5978260869565215	-6.434782608695652	2.4456521739130435	3951.6483516483513	128.0	128.0	3.7769375773593876	22.955881709561552	26.73281928692094	481.80017492773237	574.6280675683103	-5.83206106870229	9.114503816793892	0.2900763358778626	0.1619190404797601	0.8020989505247376	0.9460269865067465	
1.710400743956577E12	2.4347826086956523	-6.5	2.782608695652174	3951.6483516483513	128.0	128.0	3.754219264295014	23.02656090576183	26.780780170056843	481.79635248140727	574.6696817481139	-3.16030534351145	7.694656488549618	0.2900763358778626	0.1664167916041979	0.7886056971514243	0.9580209895052474	
1.710400743976109E12	2.532608695652174	-6.456521739130435	2.619565217391304	3926.7399267399264	128.0	128.0	3.7571762510748212	23.042283420834952	26.799459671909773	481.79729006258134	574.7025692108357	-1.7404580152671756	6.33587786259542	0.8396946564885496	0.15142428785607195	0.793103448275862	0.9610194902548725	
1.7104007439956406E12	2.5869565217391304	-6.33695652173913	2.5869565217391304	3953.113553113553	128.0	128.0	3.7556616968705296	23.063775666210137	26.819437363080667	481.801905846823	574.7086995492816	-3.5725190839694654	8.015267175572518	0.9007633587786259	0.15892053973013492	0.8110944527736131	0.9550224887556221	
1.7104007440151726E12	2.543478260869565	-6.445652173913043	2.532608695652174	3953.113553113553	128.0	128.0	3.7767212124730603	23.069761761398528	26.846482973871588	481.80082402239134	574.7132432118945	-6.290076335877862	5.557251908396946	0.9007633587786259	0.14842578710644677	0.8065967016491754	0.9505247376311844	
1.7104007440347043E12	2.4456521739130435	-6.565217391304348	2.608695652173913	3951.6483516483513	128.0	128.0	3.8039110665215334	23.094860088212503	26.898771154734035	481.7975064274677	574.743317931094	-5.083969465648854	6.564885496183206	0.2748091603053435	0.17241379310344826	0.8095952023988006	0.9490254872563718	
1.7104007440542363E12	2.4782608695652173	-6.543478260869565	2.652173913043478	3953.113553113553	128.0	128.0	3.815594770383212	23.122915401806285	26.938510172189496	481.7972179409526	574.7601943922275	-4.351145038167939	5.938931297709924	0.2748091603053435	0.1619190404797601	0.8020989505247376	0.9640179910044977	
1.710400744073768E12	2.5869565217391304	-6.521739130434782	2.5543478260869565	3950.18315018315	128.0	128.0	3.8546125715509145	23.188978813764912	27.043591385315825	481.79729006258134	574.8165213843014	-4.290076335877862	5.740458015267175	0.6259541984732824	0.15142428785607195	0.800599700149925	0.9550224887556221	
1.7104007440933E12	2.5543478260869565	-6.456521739130435	2.532608695652174	3951.6483516483513	128.0	128.0	3.872066005714656	23.254176766178222	27.12624277189288	481.79815552212665	574.8473173197887	-4.045801526717557	7.312977099236641	0.9618320610687022	0.15142428785607195	0.8110944527736131	0.9655172413793103	
1.7104007441128318E12	2.510869565217391	-6.413043478260869	2.5543478260869565	3951.6483516483513	128.0	128.0	3.8969479676423036	23.322692313515223	27.219640281157528	481.79974219795974	574.8627513483467	-4.061068702290076	7.0534351145038165	0.4427480916030534	0.17091454272863568	0.8035982008995503	0.9430284857571214	
1.7104007441323638E12	2.4782608695652173	-6.445652173913043	2.5760869565217392	3929.6703296703295	128.0	128.0	3.8767539115850824	23.33697239601283	27.213726307597913	481.7990931033007	574.8349123996392	-4.0	6.7328244274809155	0.22900763358778625	0.16941529235382308	0.8020989505247376	0.952023988005997	
1.7104007441518955E12	2.5217391304347827	-6.489130434782608	2.543478260869565	3953.113553113553	128.0	128.0	3.864709599579525	23.284900580036712	27.149610179616236	481.7977949139828	574.7850763541552	-4.67175572519084	6.076335877862595	0.0916030534351145	0.16941529235382308	0.8020989505247376	0.9565217391304347	
1.7104007441714275E12	2.543478260869565	-6.478260869565217	2.619565217391304	3953.113553113553	128.0	128.0	3.7940304033792502	23.132507578433465	26.926537981812714	481.79036638621886	574.6914624800041	-4.1679389312977095	6.473282442748092	0.366412213740458	0.15892053973013492	0.800599700149925	0.9505247376311844	
1.7104007441909592E12	2.543478260869565	-6.467391304347826	2.641304347826087	3951.6483516483513	128.0	128.0	3.7653981167552613	23.047548299735585	26.812946416490846	481.79094335924907	574.6549689358436	-3.7557251908396947	6.305343511450381	0.4580152671755725	0.17241379310344826	0.7946026986506747	0.9565217391304347	
1.7104007442104912E12	2.4782608695652173	-6.489130434782608	2.6630434782608696	3953.113553113553	128.0	128.0	3.7485937772505022	22.98985099671495	26.73844477396545	481.79007789970376	574.656771976563	-4.6106870229007635	7.0534351145038165	1.0229007633587786	0.1619190404797601	0.7976011994002998	0.9700149925037481	
1.710400744230023E12	2.5869565217391304	-6.5978260869565215	2.5217391304347827	3950.18315018315	128.0	128.0	3.744699209296609	22.959776277515445	26.704475486812054	481.7908712376203	574.6649938422435	-4.793893129770992	5.816793893129771	0.8396946564885496	0.14992503748125938	0.7901049475262368	0.9460269865067465	
1.710400744249555E12	2.4891304347826084	-6.413043478260869	2.6739130434782608	3951.6483516483513	128.0	128.0	3.730274883541451	22.96569025107506	26.69596513461651	481.79130396739293	574.6978813049652	-3.2519083969465647	8.305343511450381	0.9007633587786259	0.14842578710644677	0.8065967016491754	0.9580209895052474	
1.7104007442690867E12	2.5760869565217392	-6.391304347826087	2.532608695652174	3953.113553113553	128.0	128.0	3.7434731416074207	22.975066062815912	26.718539204423333	481.7915203322793	574.7047328596989	-5.175572519083969	4.870229007633587	1.0534351145038168	0.15892053973013492	0.8110944527736131	0.9430284857571214	
1.7104007442886187E12	2.510869565217391	-6.445652173913043	2.5543478260869565	3928.205128205128	128.0	128.0	3.744699209296609	23.005357146901748	26.750056356198357	481.7885633454995	574.7071849950773	-4.152671755725191	7.786259541984733	0.5954198473282443	0.17391304347826086	0.8035982008995503	0.9655172413793103	
1.7104007443081504E12	2.5543478260869565	-6.445652173913043	2.619565217391304	3954.5787545787543	128.0	128.0	3.750757426113776	23.035071257957373	26.78582868407115	481.7847408991744	574.6999728321997	-3.8625954198473282	6.259541984732824	0.42748091603053434	0.1634182908545727	0.8110944527736131	0.9505247376311844	
1.7104007443276824E12	2.543478260869565	-6.5	2.5543478260869565	3951.6483516483513	128.0	128.0	3.76301810300566	23.032258514435117	26.795276617440777	481.7901500213325	574.6784805868245	-3.679389312977099	6.854961832061068	0.2900763358778626	0.1634182908545727	0.8035982008995503	0.9580209895052474	
1.710400744347214E12	2.543478260869565	-6.5	2.5978260869565215	3951.6483516483513	128.0	128.0	3.756238669900736	23.026344540875503	26.782583210776238	481.79108760250665	574.6664362748189	-2.4580152671755724	7.206106870229007	0.549618320610687	0.1634182908545727	0.7961019490254873	0.9655172413793103	
1.710400744366746E12	2.543478260869565	-6.456521739130435	2.5869565217391304	3926.7399267399264	128.0	128.0	3.759267778309319	23.010549904173605	26.769817682482923	481.79216942693824	574.6533822600105	-2.259541984732824	6.351145038167939	0.42748091603053434	0.1649175412293853	0.7976011994002998	0.9565217391304347	
1.7104007443862778E12	2.5652173913043477	-6.391304347826087	2.532608695652174	3951.6483516483513	128.0	128.0	3.751478642401534	22.99778437588029	26.749263018281823	481.79433307580155	574.6535265032682	-2.9923664122137406	6.763358778625954	0.5954198473282443	0.1634182908545727	0.800599700149925	0.9550224887556221	
1.7104007444058096E12	2.5652173913043477	-6.478260869565217	2.5978260869565215	3951.6483516483513	128.0	128.0	3.74570891209947	22.999731659857236	26.745440571956706	481.79036638621886	574.6492713271704	-5.022900763358779	7.541984732824427	0.6259541984732824	0.17091454272863568	0.8065967016491754	0.9370314842578711	
1.7104007444253416E12	2.5978260869565215	-6.521739130434782	2.5652173913043477	3951.6483516483513	128.0	128.0	3.7417422225168018	22.9852352124733	26.7269774349901	481.79274639996845	574.6584307740249	-2.854961832061069	6.870229007633587	0.5954198473282443	0.16941529235382308	0.7946026986506747	0.952023988005997	
1.7104007444448733E12	2.5760869565217392	-6.423913043478261	2.5	3928.205128205128	128.0	128.0	3.731645194488191	22.983215806867577	26.714861001355768	481.7954149002332	574.6657150585312	-3.16030534351145	7.709923664122137	0.366412213740458	0.15742128935532235	0.8050974512743628	0.9490254872563718	
1.7104007444644053E12	2.510869565217391	-6.456521739130435	2.5652173913043477	3953.113553113553	128.0	128.0	3.7485937772505022	22.967276926908127	26.71587070415863	481.79253003508217	574.6715569104621	-3.877862595419847	7.419847328244274	0.549618320610687	0.1649175412293853	0.8020989505247376	0.9565217391304347	
1.710400744483937E12	2.467391304347826	-6.478260869565217	2.5760869565217392	3951.6483516483513	128.0	128.0	3.7405161548276133	22.968863602741195	26.709379757568808	481.79289064322603	574.6766054244764	-3.465648854961832	6.33587786259542	0.7786259541984732	0.1619190404797601	0.8020989505247376	0.9565217391304347	
1.710400744503469E12	2.5	-6.489130434782608	2.5217391304347827	3951.6483516483513	128.0	128.0	3.727245775132868	22.976580617020204	26.703826392153072	481.79051062947644	574.667734464137	-3.0381679389312977	6.1679389312977095	0.5801526717557252	0.1649175412293853	0.8050974512743628	0.9670164917541229	
1.7104007445230007E12	2.5217391304347827	-6.445652173913043	2.5217391304347827	3951.6483516483513	128.0	128.0	3.74570891209947	23.02107966197487	26.76678857407434	481.7850293856895	574.6704029644017	-2.5343511450381677	6.3969465648854955	0.47328244274809156	0.17241379310344826	0.7901049475262368	0.9460269865067465	
1.7104007445425327E12	2.510869565217391	-6.456521739130435	2.5869565217391304	3950.18315018315	128.0	128.0	3.7408767629714923	23.05447197609806	26.795348739069553	481.785173628947	574.6685999236822	-2.8854961832061066	6.625954198473282	0.6412213740458015	0.15592203898050974	0.800599700149925	0.9580209895052474	
1.7104007445620645E12	2.532608695652174	-6.467391304347826	2.608695652173913	3951.6483516483513	128.0	128.0	3.7772981855032666	23.109717143740315	26.88701532924358	481.7861833317499	574.6300148522872	-2.717557251908397	6.458015267175572	0.6412213740458015	0.16941529235382308	0.8020989505247376	0.95952023988006	
1.7104007445815964E12	2.543478260869565	-6.456521739130435	2.5978260869565215	3953.113553113553	128.0	128.0	3.776865455730612	23.038244609623508	26.81511006535412	481.78921244015845	574.6616762473197	-3.1755725190839694	5.877862595419847	0.6259541984732824	0.1649175412293853	0.8095952023988006	0.9565217391304347	
1.7104007446011282E12	2.5217391304347827	-6.445652173913043	2.5760869565217392	3929.6703296703295	128.0	128.0	3.745853155357022	22.987326739707797	26.73317989506482	481.7884191022419	574.6507858813746	-3.0076335877862594	6.076335877862595	0.5038167938931297	0.1634182908545727	0.8110944527736131	0.9655172413793103	
1.7104007446206602E12	2.5652173913043477	-6.456521739130435	2.532608695652174	3954.5787545787543	128.0	128.0	3.7449876958117123	22.952708357895418	26.69769605370713	481.79036638621886	574.6704029644017	-2.549618320610687	4.885496183206107	0.549618320610687	0.17841079460269865	0.8035982008995503	0.9685157421289355	
1.710400744640192E12	2.5543478260869565	-6.445652173913043	2.5652173913043477	3953.113553113553	128.0	128.0	3.806868053301341	23.083681235752255	26.890549289053595	481.78264937193984	574.7060310490169	-2.5343511450381677	6.99236641221374	0.5801526717557252	0.1619190404797601	0.8020989505247376	0.95952023988006	
1.7104007446597239E12	2.532608695652174	-6.5	2.608695652173913	3951.6483516483513	128.0	128.0	4.03203177833936	24.368600174021743	28.400631952361103	481.78178391239453	573.7887881742464	-2.748091603053435	5.175572519083969	0.8549618320610687	0.15592203898050974	0.8035982008995503	0.9505247376311844	
1.7104007446792556E12	2.510869565217391	-6.478260869565217	2.608695652173913	3953.113553113553	128.0	128.0	3.7364052219873933	23.08872974976656	26.825134971753954	481.78113481773556	573.933031431798	-1.984732824427481	7.526717557251908	0.8396946564885496	0.14992503748125938	0.7976011994002998	0.952023988005997	
1.7104007446987876E12	2.6630434782608696	-6.391304347826087	2.4456521739130435	3951.6483516483513	128.0	128.0	3.8184075139054676	22.9053965694185	26.723804083323966	481.78358695311397	574.6173214456227	-3.7404580152671754	3.3740458015267176	0.3053435114503817	0.1619190404797601	0.8125937031484257	0.952023988005997	
1.7104007447183193E12	2.467391304347826	-6.532608695652174	2.6630434782608696	3925.274725274725	128.0	128.0	3.771384211943652	22.996702551448653	26.768086763392304	481.7857506019772	574.689587317656	-2.5343511450381677	8.48854961832061	1.0534351145038168	0.16941529235382308	0.8050974512743628	0.9565217391304347	
1.7104007447378513E12	2.510869565217391	-6.467391304347826	2.652173913043478	3953.113553113553	128.0	128.0	3.7752066582687687	22.99554860538824	26.77075526365701	481.78510150731825	574.7018479945478	-0.7022900763358778	6.900763358778626	1.282442748091603	0.15892053973013492	0.7961019490254873	0.9475262368815592	
1.710400744757383E12	2.5978260869565215	-6.315217391304348	2.543478260869565	3929.6703296703295	128.0	128.0	3.7819860913736933	23.018122675195062	26.800108766568755	481.78466877754556	574.7107910765161	-2.3664122137404577	7.465648854961832	1.4045801526717556	0.16941529235382308	0.7871064467766117	0.9640179910044977	
1.710400744776915E12	2.532608695652174	-6.413043478260869	2.5217391304347827	3926.7399267399264	128.0	128.0	3.790063713796582	23.035359744472476	26.825423458269057	481.78012511493273	574.7227632668929	-5.32824427480916	6.931297709923664	1.1603053435114503	0.15892053973013492	0.8065967016491754	0.9475262368815592	
1.7104007447964468E12	2.4456521739130435	-6.554347826086956	2.5869565217391304	3951.6483516483513	128.0	128.0	3.8178305408752613	23.062405355263397	26.880235896138657	481.78099057447804	574.7492319046536	-4.473282442748092	6.748091603053435	0.5190839694656488	0.15742128935532235	0.8020989505247376	0.9565217391304347	
1.7104007448159788E12	2.532608695652174	-6.554347826086956	2.641304347826087	3951.6483516483513	128.0	128.0	3.821292379056499	23.104091656695804	26.9253840357523	481.77817783095577	574.7635119871512	-3.4045801526717554	6.595419847328244	0.6564885496183206	0.1664167916041979	0.7856071964017991	0.9550224887556221	
1.7104007448355105E12	2.5978260869565215	-6.510869565217391	2.543478260869565	3951.6483516483513	128.0	128.0	3.87062357313914	23.1422439983182	27.01286757145734	481.77543720906226	574.8212092901719	-3.32824427480916	6.702290076335878	0.8702290076335878	0.14842578710644677	0.8035982008995503	0.9610194902548725	
1.7104007448550425E12	2.532608695652174	-6.445652173913043	2.543478260869565	3951.6483516483513	128.0	128.0	3.890889750825137	23.206720734443753	27.09761048526889	481.7789711688723	574.8515003742576	-2.9618320610687023	7.236641221374046	0.7175572519083969	0.1634182908545727	0.8065967016491754	0.9655172413793103	
1.7104007448745742E12	2.4891304347826084	-6.434782608695652	2.5652173913043477	3951.6483516483513	128.0	128.0	3.9196662807066778	23.253671914776792	27.17333819548347	481.7778172228119	574.8817193367147	-3.1755725190839694	7.251908396946565	0.9770992366412213	0.15592203898050974	0.8035982008995503	0.9505247376311844	
1.7104007448941062E12	2.5217391304347827	-6.456521739130435	2.5760869565217392	3953.113553113553	128.0	128.0	3.9132474557456325	23.288362418217947	27.20160987396358	481.7783220742133	574.8698192679667	-2.8854961832061066	7.633587786259541	0.8244274809160305	0.14992503748125938	0.8020989505247376	0.9490254872563718	
1.710400744913638E12	2.5543478260869565	-6.456521739130435	2.630434782608696	3928.205128205128	128.0	128.0	3.892332183400653	23.262542875116214	27.15487505851687	481.77341780345654	574.820488073884	-3.2671755725190836	7.2824427480916025	0.9007633587786259	0.17391304347826086	0.800599700149925	0.9580209895052474	
1.71040074493317E12	2.5652173913043477	-6.467391304347826	2.619565217391304	3951.6483516483513	128.0	128.0	3.8281439337901992	23.113467468436657	26.941611402226854	481.7780335876982	574.7278117809071	-3.2061068702290076	7.343511450381679	1.129770992366412	0.1619190404797601	0.8095952023988006	0.9700149925037481	
1.7104007449527017E12	2.532608695652174	-6.478260869565217	2.5978260869565215	3951.6483516483513	128.0	128.0	3.7881164298196355	23.027859095079794	26.81597552489943	481.77702388489536	574.6845388036417	-2.9923664122137406	7.267175572519084	0.9618320610687022	0.15592203898050974	0.8140929535232384	0.9550224887556221	
1.7104007449722336E12	2.4891304347826084	-6.521739130434782	2.5978260869565215	3950.18315018315	128.0	128.0	3.768859954936499	22.957756871909723	26.72661682684622	481.77911541212984	574.677038154249	-3.1908396946564883	7.801526717557252	1.0534351145038168	0.15742128935532235	0.8020989505247376	0.9490254872563718	
1.7104007449917654E12	2.619565217391304	-6.532608695652174	2.4891304347826084	3953.113553113553	128.0	128.0	3.761070819028714	22.943044059639462	26.704114878668175	481.7765190334939	574.6742254107268	-2.9770992366412212	3.66412213740458	0.183206106870229	0.1634182908545727	0.8035982008995503	0.9580209895052474	
1.7104007450112974E12	2.4239130434782608	-6.445652173913043	2.7717391304347827	3953.113553113553	128.0	128.0	3.7573926159611486	22.93792342399638	26.69531603995753	481.7757978172062	574.6887218581107	-1.3893129770992365	10.198473282442748	0.564885496183206	0.1619190404797601	0.7976011994002998	0.952023988005997	
1.710400745030829E12	2.619565217391304	-6.423913043478261	2.608695652173913	3953.113553113553	128.0	128.0	3.76301810300566	22.94787620876744	26.7108943117731	481.7738505332292	574.6941309802688	-3.8625954198473282	3.3740458015267176	0.3053435114503817	0.15892053973013492	0.8065967016491754	0.9760119940029984	
1.710400745050361E12	2.543478260869565	-6.434782608695652	2.5652173913043477	3951.6483516483513	128.0	128.0	3.7680666170199655	22.969007845998746	26.73707446301871	481.7773844930392	574.698602521253	-2.9923664122137406	7.816793893129771	1.2671755725190839	0.17691154422788605	0.7901049475262368	0.95952023988006	
1.7104007450698928E12	2.5217391304347827	-6.445652173913043	2.6956521739130435	3928.205128205128	128.0	128.0	3.783789132093088	22.978816387512257	26.762605519605344	481.7784663174709	574.6807163573166	-3.297709923664122	7.450381679389313	0.8549618320610687	0.17091454272863568	0.8035982008995503	0.9550224887556221	
1.7104007450894248E12	2.5869565217391304	-6.510869565217391	2.5760869565217392	3953.113553113553	128.0	128.0	3.7948958629245597	22.96900784599875	26.76390370892331	481.782288763796	574.6771823975066	-3.7862595419847325	6.3206106870229	1.083969465648855	0.17091454272863568	0.7961019490254873	0.9505247376311844	
1.7104007451089565E12	2.532608695652174	-6.532608695652174	2.619565217391304	3953.113553113553	128.0	128.0	3.7850151997822765	22.95710777725074	26.742122977033016	481.7777451011831	574.6698981130002	-2.1068702290076335	8.0	0.9312977099236641	0.1619190404797601	0.7976011994002998	0.952023988005997	
1.7104007451284885E12	2.5217391304347827	-6.478260869565217	2.652173913043478	3951.6483516483513	128.0	128.0	3.7804715371694018	22.94340466778334	26.72387620495274	481.78026935819025	574.6636235312967	-2.015267175572519	8.106870229007633	1.129770992366412	0.15742128935532235	0.8095952023988006	0.9640179910044977	
1.7104007451480203E12	2.543478260869565	-6.445652173913043	2.5760869565217392	3951.6483516483513	128.0	128.0	3.7788848613363344	22.926239720134703	26.705124581471036	481.7773844930392	574.6565556116767	-1.7251908396946565	7.816793893129771	1.2671755725190839	0.1664167916041979	0.7961019490254873	0.9580209895052474	
1.7104007451675522E12	2.5217391304347827	-6.434782608695652	2.532608695652174	3951.6483516483513	128.0	128.0	3.777442428760818	22.913041462068733	26.69048389082955	481.777456614668	574.6564113684192	-3.3740458015267176	7.022900763358779	0.9007633587786259	0.16941529235382308	0.7871064467766117	0.9670164917541229	
1.710400745187084E12	2.543478260869565	-6.467391304347826	2.5760869565217392	3951.6483516483513	128.0	128.0	3.7769375773593876	22.90828143456953	26.68521901192892	481.7795481419025	574.6505695164883	-2.732824427480916	7.541984732824427	0.9312977099236641	0.1649175412293853	0.7976011994002998	0.9565217391304347	
1.710400745206616E12	2.5217391304347827	-6.478260869565217	2.5978260869565215	3951.6483516483513	128.0	128.0	3.779029104593886	22.90078078517685	26.679809889770734	481.7777451011831	574.6518677058062	-2.198473282442748	7.145038167938931	1.114503816793893	0.17841079460269865	0.8035982008995503	0.9550224887556221	
1.7104007452261477E12	2.5543478260869565	-6.467391304347826	2.5543478260869565	3929.6703296703295	128.0	128.0	3.7646047788387276	22.907992948054428	26.672597726893155	481.7828657368262	574.6538149897832	-2.2748091603053435	6.687022900763359	0.9618320610687022	0.15742128935532235	0.8050974512743628	0.9565217391304347	
1.7104007452456797E12	2.543478260869565	-6.5	2.5543478260869565	3953.113553113553	128.0	128.0	3.773692104064477	22.925806990362048	26.699499094426525	481.7807742095917	574.6533822600105	-2.045801526717557	7.221374045801526	0.9465648854961831	0.15892053973013492	0.793103448275862	0.9610194902548725	
1.7104007452652114E12	2.510869565217391	-6.489130434782608	2.630434782608696	3951.6483516483513	128.0	128.0	3.7714563335724276	22.94102465403374	26.712480987606167	481.78243300705356	574.6500646650869	-2.045801526717557	7.358778625954198	0.8854961832061068	0.17391304347826086	0.7961019490254873	0.9550224887556221	
1.7104007452847434E12	2.532608695652174	-6.467391304347826	2.619565217391304	3951.6483516483513	128.0	128.0	3.7984298227345734	23.03492701469982	26.833356837434394	481.777456614668	574.6039068226704	-1.9236641221374045	6.65648854961832	0.8396946564885496	0.1619190404797601	0.8050974512743628	0.9640179910044977	
1.7104007453042751E12	2.5543478260869565	-6.445652173913043	2.652173913043478	3951.6483516483513	128.0	128.0	3.815811135269539	22.961002345204637	26.776813480474175	481.7819281556521	574.6323948660367	-2.4427480916030535	7.8473282442748085	0.8702290076335878	0.15592203898050974	0.7886056971514243	0.9505247376311844	
1.7104007453238071E12	2.532608695652174	-6.445652173913043	2.619565217391304	3953.113553113553	128.0	128.0	3.7752787798975445	22.91498874604568	26.690267525943224	481.7806299663341	574.635856704218	-2.33587786259542	6.473282442748092	1.0229007633587786	0.15892053973013492	0.8035982008995503	0.9580209895052474	
1.7104007453433389E12	2.543478260869565	-6.434782608695652	2.5543478260869565	3951.6483516483513	128.0	128.0	3.7667684277020013	22.878567323513906	26.645335751215907	481.7870487912952	574.6334766904685	-2.381679389312977	6.778625954198473	1.0534351145038168	0.1394302848575712	0.7946026986506747	0.952023988005997	
1.7104007453628708E12	2.5	-6.456521739130435	2.619565217391304	3951.6483516483513	128.0	128.0	3.798934674136004	22.905108082903396	26.7040427570394	481.7869766696664	574.6799951410288	-1.9389312977099236	7.435114503816793	1.3740458015267174	0.15442278860569714	0.7901049475262368	0.9490254872563718	
1.7104007453824026E12	2.543478260869565	-6.489130434782608	2.641304347826087	3928.205128205128	128.0	128.0	4.11187042139416	24.03756189794086	28.149432319335023	481.7813511826219	574.0810250140458	-2.1526717557251906	5.740458015267175	1.1603053435114503	0.1619190404797601	0.8020989505247376	0.9640179910044977	
1.7104007454019346E12	2.5543478260869565	-6.521739130434782	2.641304347826087	3953.113553113553	128.0	128.0	3.7074123272195254	23.34714154567022	27.054553872889745	481.7882748589844	573.7627522662583	-1.0381679389312977	6.8396946564885495	1.4198473282442747	0.14992503748125938	0.7946026986506747	0.95952023988006	
1.7104007454214663E12	2.608695652173913	-6.4021739130434785	2.532608695652174	3953.113553113553	128.0	128.0	3.824177244207531	22.796997761368488	26.621175005576017	481.7845966559168	574.5442622356728	-0.8854961832061068	2.0763358778625953	0.7786259541984732	0.16941529235382308	0.8200899550224887	0.9640179910044977	
1.7104007454409983E12	2.4130434782608696	-6.489130434782608	2.608695652173913	3950.18315018315	128.0	128.0	3.8119165673156465	22.905468691047275	26.71738525836292	481.78113481773556	574.6590798686839	-3.2061068702290076	10.748091603053435	1.129770992366412	0.14692653673163417	0.8020989505247376	0.95952023988006	
1.71040074546053E12	2.4565217391304346	-6.434782608695652	2.7391304347826084	3953.113553113553	128.0	128.0	3.8127099052321802	22.92645608502103	26.73916599025321	481.7801972365615	574.7087716709103	-1.114503816793893	8.0	1.2213740458015268	0.1649175412293853	0.8050974512743628	0.95952023988006	
1.710400745480062E12	2.5760869565217392	-6.358695652173913	2.6630434782608696	3951.6483516483513	128.0	128.0	3.7997280120525376	22.95595383119033	26.75568184324287	481.780341479819	574.7006940484874	-0.8854961832061068	8.534351145038167	1.8015267175572518	0.15442278860569714	0.7946026986506747	0.9700149925037481	
1.7104007454995938E12	2.5978260869565215	-6.369565217391304	2.608695652173913	3951.6483516483513	128.0	128.0	3.8173256894738308	22.95905506122769	26.77638075070152	481.780341479819	574.7086995492816	-4.229007633587786	7.893129770992366	1.8015267175572518	0.15892053973013492	0.8035982008995503	0.9505247376311844	
1.7104007455191257E12	2.4891304347826084	-6.543478260869565	2.5760869565217392	3953.113553113553	128.0	128.0	3.8405488539396355	22.984225509670438	26.824774363610075	481.78387543962907	574.7340863626107	-5.0534351145038165	7.2824427480916025	1.0687022900763359	0.1649175412293853	0.8125937031484257	0.95952023988006	
1.7104007455386575E12	2.4347826086956523	-6.5978260869565215	2.75	3926.7399267399264	128.0	128.0	3.8618968560572693	23.004275322470107	26.86617217852738	481.78171179076577	574.7423082282911	-3.099236641221374	8.213740458015266	0.6870229007633587	0.1619190404797601	0.8020989505247376	0.9490254872563718	
1.7104007455581895E12	2.5217391304347827	-6.554347826086956	2.619565217391304	3954.5787545787543	128.0	128.0	3.900193440937214	23.055553800529694	26.95574724146691	481.78236088542474	574.7982024905923	-3.1908396946564883	5.374045801526718	0.564885496183206	0.16941529235382308	0.8095952023988006	0.95952023988006	
1.7104007455777212E12	2.5760869565217392	-6.434782608695652	2.543478260869565	3953.113553113553	128.0	128.0	3.9313499845683557	23.108923805823782	27.04027379039214	481.7786826823572	574.8345517914953	-1.8931297709923662	6.625954198473282	0.5801526717557252	0.1664167916041979	0.8035982008995503	0.9655172413793103	
1.7104007455972532E12	2.5	-6.380434782608695	2.5869565217391304	3950.18315018315	128.0	128.0	3.960631365851327	23.210615302397645	27.171246668248973	481.7792596553874	574.8613810374	-1.9694656488549618	7.251908396946565	1.129770992366412	0.16941529235382308	0.8050974512743628	0.952023988005997	
1.710400745616785E12	2.510869565217391	-6.4021739130434785	2.619565217391304	3926.7399267399264	128.0	128.0	3.951255554110474	23.23297300731814	27.184228561428615	481.78329846659886	574.8489039956218	-2.2900763358778624	6.99236641221374	1.0534351145038168	0.1619190404797601	0.815592203898051	0.952023988005997	
1.710400745636317E12	2.532608695652174	-6.423913043478261	2.6739130434782608	3951.6483516483513	128.0	128.0	3.9314221061971315	23.2202796006536	27.151701706850734	481.78142330425067	574.7950291389262	-2.1221374045801524	7.221374045801526	1.2519083969465647	0.16941529235382308	0.7976011994002998	0.95952023988006	
1.7104007456558486E12	2.5217391304347827	-6.456521739130435	2.6956521739130435	3951.6483516483513	128.0	128.0	3.857858044845825	23.09226370957657	26.950121754422398	481.78127906099314	574.725936618559	-2.4732824427480917	7.572519083969465	1.1603053435114503	0.17091454272863568	0.7961019490254873	0.9610194902548725	
1.7104007456753806E12	2.532608695652174	-6.489130434782608	2.6630434782608696	3951.6483516483513	128.0	128.0	3.813431121519938	23.00463593061399	26.818067052133927	481.78293785845494	574.6706914509167	-2.854961832061069	6.152671755725191	1.2061068702290076	0.1649175412293853	0.8020989505247376	0.9490254872563718	
1.7104007456949124E12	2.5	-6.521739130434782	2.652173913043478	3926.7399267399264	128.0	128.0	3.7907849300843397	22.923643341498774	26.714428271583113	481.7796202635313	574.652949530238	-2.8091603053435112	6.717557251908397	1.099236641221374	0.1664167916041979	0.793103448275862	0.9475262368815592	
1.7104007457144443E12	2.5760869565217392	-6.58695652173913	2.641304347826087	3953.113553113553	128.0	128.0	3.7722496714889613	22.901862609608486	26.674112281097447	481.7798366284176	574.6462422187617	-3.1755725190839694	3.7251908396946565	0.6717557251908397	0.1664167916041979	0.8110944527736131	0.9475262368815592	
1.710400745733976E12	2.4565217391304346	-6.456521739130435	2.75	3938.461538461538	128.0	128.0	3.775423023155096	22.900708663548073	26.67613168670317	481.78055784470536	574.6846830468993	0.38167938931297707	6.5038167938931295	1.1603053435114503	0.17091454272863568	0.8065967016491754	0.9550224887556221	
1.710400745753508E12	2.543478260869565	-6.380434782608695	2.652173913043478	3950.18315018315	128.0	128.0	3.781769726487366	22.909795988773823	26.691565715261188	481.782288763796	574.6908133853452	-1.83206106870229	6.1679389312977095	0.9618320610687022	0.1664167916041979	0.800599700149925	0.9475262368815592	
1.7104007457730398E12	2.510869565217391	-6.423913043478261	2.75	3926.7399267399264	128.0	128.0	3.795472835954766	22.94066404588986	26.736136881844626	481.77731237141046	574.6884333715956	-1.9083969465648853	7.236641221374046	1.7099236641221374	0.1619190404797601	0.7976011994002998	0.9490254872563718	
1.7104007457925718E12	2.543478260869565	-6.423913043478261	2.7282608695652173	3951.6483516483513	128.0	128.0	3.811123229399113	22.948741668312753	26.759864897711864	481.777456614668	574.6859812362172	-3.0839694656488548	6.809160305343511	0.9465648854961831	0.15592203898050974	0.800599700149925	0.9550224887556221	
1.7104007458121035E12	2.532608695652174	-6.510869565217391	2.641304347826087	3951.6483516483513	128.0	128.0	3.8116280808005434	22.944053762442326	26.75568184324287	481.7809184528492	574.6890824662546	-3.66412213740458	6.564885496183206	1.2213740458015268	0.15742128935532235	0.7946026986506747	0.952023988005997	
1.7104007458316355E12	2.532608695652174	-6.543478260869565	2.6630434782608696	3953.113553113553	128.0	128.0	3.8067238100437892	22.932658545095748	26.739382355139536	481.77760085792556	574.6848994117855	-1.9541984732824427	7.175572519083969	0.9465648854961831	0.15592203898050974	0.8065967016491754	0.9505247376311844	
1.7104007458511672E12	2.467391304347826	-6.478260869565217	2.684782608695652	3926.7399267399264	128.0	128.0	3.8029013637186724	22.92097484123407	26.72387620495274	481.78171179076577	574.6773266407641	-1.4045801526717556	7.1603053435114505	1.083969465648855	0.1634182908545727	0.793103448275862	0.9550224887556221	
1.7104007458706992E12	2.4782608695652173	-6.434782608695652	2.608695652173913	3954.5787545787543	128.0	128.0	3.787900064933308	22.92407607127143	26.711976136204736	481.7833705882276	574.6745860188706	-1.114503816793893	6.671755725190839	1.4198473282442747	0.14992503748125938	0.8125937031484257	0.9700149925037481	
1.710400745890231E12	2.4456521739130435	-6.434782608695652	2.5869565217391304	3951.6483516483513	128.0	128.0	3.7970595117878334	22.950761073918475	26.747820585706307	481.7831542233413	574.6753072351584	-1.83206106870229	7.6183206106870225	1.083969465648855	0.15142428785607195	0.793103448275862	0.9475262368815592	
1.7104007459097627E12	2.4456521739130435	-6.489130434782608	2.608695652173913	3948.7179487179483	128.0	128.0	3.812060810573198	23.012569309779327	26.824630120352523	481.78243300705356	574.6553295439875	-2.732824427480916	6.549618320610687	0.564885496183206	0.17691154422788605	0.7871064467766117	0.95952023988006	
1.7104007459292947E12	2.4456521739130435	-6.478260869565217	2.684782608695652	3953.113553113553	128.0	128.0	3.8259081632981498	23.02742636530714	26.853334528605288	481.78625545337866	574.6306639469461	-1.1755725190839694	7.801526717557252	0.366412213740458	0.1619190404797601	0.7946026986506747	0.9490254872563718	
1.7104007459488264E12	2.467391304347826	-6.467391304347826	2.7391304347826084	3953.113553113553	128.0	128.0	3.810041404967476	22.966555710620373	26.776597115587847	481.7837311963715	574.6411937047475	-0.7938931297709924	5.969465648854961	0.32061068702290074	0.15742128935532235	0.8095952023988006	0.952023988005997	
1.7104007459683584E12	2.532608695652174	-6.434782608695652	2.6956521739130435	3953.113553113553	128.0	128.0	3.7758557529277508	22.902728069153795	26.678583822081546	481.7779614660694	574.661604125691	-0.8091603053435115	6.427480916030534	0.15267175572519084	0.1649175412293853	0.8125937031484257	0.952023988005997	
1.7104007459878901E12	2.5652173913043477	-6.4021739130434785	2.6630434782608696	3953.113553113553	128.0	128.0	3.7758557529277508	22.879649147945543	26.655504900873293	481.7804857230766	574.668022950652	-0.5801526717557252	5.541984732824427	0.10687022900763359	0.17691154422788605	0.815592203898051	0.9640179910044977	
1.710400746007422E12	2.5	-6.456521739130435	2.8043478260869565	3929.6703296703295	128.0	128.0	4.010106803191519	23.267086537729092	27.27719334092061	481.7790432905011	574.6864860876186	-0.5954198473282443	7.145038167938931	0.5190839694656488	0.17241379310344826	0.8020989505247376	0.95952023988006	
1.7104007460269539E12	2.5217391304347827	-6.532608695652174	2.782608695652174	3953.113553113553	128.0	128.0	3.986090300809181	24.192984007952692	28.179074308761873	481.7796202635313	573.9045433884315	-1.0687022900763359	4.198473282442748	0.5343511450381679	0.1634182908545727	0.8065967016491754	0.9505247376311844	
1.7104007460464858E12	2.4891304347826084	-6.489130434782608	2.717391304347826	3951.6483516483513	128.0	128.0	3.757608980847476	22.763605447245297	26.521214428092772	481.7828657368262	574.2907547105259	-0.10687022900763359	4.99236641221374	0.4427480916030534	0.16941529235382308	0.8095952023988006	0.952023988005997	
1.7104007460660176E12	2.619565217391304	-6.380434782608695	2.5978260869565215	3948.7179487179483	128.0	128.0	3.8269899877297866	22.830462197120454	26.65745218485024	481.78171179076577	574.626553014106	-1.129770992366412	0.5038167938931297	-0.3053435114503817	0.15892053973013492	0.8185907046476761	0.9550224887556221	
1.7104007460855496E12	2.391304347826087	-6.489130434782608	3.032608695652174	3953.113553113553	128.0	128.0	3.8083104858768566	22.927105179680012	26.735415665556868	481.782288763796	574.7035789136385	-2.717557251908397	11.374045801526718	1.114503816793893	0.15742128935532235	0.8050974512743628	0.95952023988006	
1.7104007461050813E12	2.619565217391304	-6.413043478260869	2.7717391304347827	3951.6483516483513	128.0	128.0	3.809752918452373	22.95169865509256	26.76145157354493	481.78026935819025	574.7273069295057	0.10687022900763359	4.702290076335878	0.8702290076335878	0.15442278860569714	0.8095952023988006	0.9565217391304347	
1.7104007461246133E12	2.630434782608696	-6.293478260869565	2.6956521739130435	3951.6483516483513	128.0	128.0	3.8205711627687413	22.961507196606068	26.782078359374808	481.78127906099314	574.7268741997331	-0.42748091603053434	7.908396946564885	1.4351145038167938	0.15742128935532235	0.8200899550224887	0.9460269865067465	
1.710400746144145E12	2.510869565217391	-6.391304347826087	2.782608695652174	3951.6483516483513	128.0	128.0	3.8293700014793877	22.997568010993962	26.82693801247335	481.7813511826219	574.7323554435201	-2.381679389312977	7.694656488549618	0.7786259541984732	0.1649175412293853	0.7901049475262368	0.9640179910044977	
1.710400746163677E12	2.5	-6.608695652173913	2.7391304347826084	3926.7399267399264	128.0	128.0	3.851655584771107	23.00939595811319	26.861051542884297	481.78026935819025	574.7521167698046	-5.480916030534351	5.32824427480916	-0.13740458015267176	0.15742128935532235	0.8125937031484257	0.95952023988006	
1.7104007461832087E12	2.510869565217391	-6.58695652173913	2.8260869565217392	3904.7619047619046	128.0	128.0	3.8822351553720424	23.0516592325758	26.933894387947845	481.780341479819	574.7899806249119	-2.8091603053435112	6.244274809160305	0.13740458015267176	0.15892053973013492	0.8140929535232384	0.9580209895052474	
1.7104007462027407E12	2.543478260869565	-6.489130434782608	2.717391304347826	3951.6483516483513	128.0	128.0	3.9119492664276683	23.099259507567826	27.011208773995495	481.78099057447804	574.8022413018037	-1.9541984732824427	5.2824427480916025	0.6412213740458015	0.1649175412293853	0.8125937031484257	0.95952023988006	
1.7104007462222725E12	2.5760869565217392	-6.391304347826087	2.684782608695652	3947.252747252747	128.0	128.0	3.94858705384577	23.159625310853162	27.108212364698932	481.7819281556521	574.8340469400939	-1.0534351145038168	6.6106870229007635	1.1755725190839694	0.16941529235382308	0.8095952023988006	0.952023988005997	
1.7104007462418044E12	2.543478260869565	-6.358695652173913	2.717391304347826	3953.113553113553	128.0	128.0	3.9664010961533904	23.23196330451528	27.19836440066867	481.78293785845494	574.8561882801281	-1.4045801526717556	7.312977099236641	1.450381679389313	0.15892053973013492	0.8035982008995503	0.9580209895052474	
1.7104007462613362E12	2.532608695652174	-6.413043478260869	2.760869565217391	3953.113553113553	128.0	128.0	3.946207040096169	23.241771846028787	27.187978886124956	481.7831542233413	574.8204159522553	-1.9694656488549618	7.648854961832061	1.0381679389312977	0.15142428785607195	0.8065967016491754	0.9655172413793103	
1.7104007462808682E12	2.543478260869565	-6.445652173913043	2.782608695652174	3953.113553113553	128.0	128.0	3.8850478988942982	23.158543486421525	27.043591385315825	481.78322634497005	574.7435342959803	-2.8702290076335877	7.32824427480916	0.7175572519083969	0.14842578710644677	0.7961019490254873	0.9430284857571214	
1.7104007463004E12	2.5652173913043477	-6.5	2.760869565217391	3953.113553113553	128.0	128.0	3.8318942584865403	23.047836786250688	26.879731044737227	481.78171179076577	574.7032183054946	-3.145038167938931	6.961832061068702	0.7022900763358778	0.15442278860569714	0.815592203898051	0.9490254872563718	
1.710400746319932E12	2.5652173913043477	-6.478260869565217	2.7717391304347827	3929.6703296703295	128.0	128.0	3.7856642944412586	22.957828993538502	26.74349328797976	481.7799087500464	574.6654265720161	-3.2519083969465647	6.778625954198473	0.42748091603053434	0.1649175412293853	0.815592203898051	0.9460269865067465	
1.7104007463394636E12	2.619565217391304	-6.532608695652174	2.75	3954.5787545787543	128.0	128.0	3.772033306602634	22.933235518125954	26.705268824728588	481.7778172228119	574.661604125691	-2.8244274809160306	6.65648854961832	0.8244274809160305	0.1664167916041979	0.8035982008995503	0.9610194902548725	
1.7104007463589956E12	2.4347826086956523	-6.478260869565217	2.880434782608696	3953.113553113553	128.0	128.0	3.7628738597481086	22.917152394908953	26.68002625465706	481.7756535739486	574.674153289098	-1.282442748091603	9.862595419847327	1.1908396946564885	0.1619190404797601	0.8050974512743628	0.9460269865067465	
1.7104007463785273E12	2.608695652173913	-6.33695652173913	2.6956521739130435	3947.252747252747	128.0	128.0	3.76027748111218	22.941601627063946	26.701879108176126	481.77644691186515	574.6735763160677	-1.9541984732824427	3.480916030534351	0.3053435114503817	0.1664167916041979	0.7961019490254873	0.9505247376311844	
1.7104007463980593E12	2.4130434782608696	-6.434782608695652	2.869565217391304	3953.113553113553	128.0	128.0	3.7753509015263202	22.95112168206235	26.72647258358867	481.7833705882276	574.6836012224676	-4.366412213740458	8.900763358778626	1.0687022900763359	0.17091454272863568	0.8185907046476761	0.9550224887556221	
1.710400746417591E12	2.5217391304347827	-6.456521739130435	2.934782608695652	3953.113553113553	128.0	128.0	3.793092822205165	22.975643035846122	26.768735858051286	481.7797645067888	574.6865582092474	-2.931297709923664	6.931297709923664	0.564885496183206	0.1619190404797601	0.8125937031484257	0.9490254872563718	
1.710400746437123E12	2.608695652173913	-6.510869565217391	2.7391304347826084	3951.6483516483513	128.0	128.0	3.796915268530282	22.969224210885077	26.766139479415358	481.7834427098564	574.6887939797394	-3.847328244274809	6.5038167938931295	0.916030534351145	0.17091454272863568	0.8110944527736131	0.9550224887556221	
1.7104007464566548E12	2.5217391304347827	-6.5	2.8369565217391304	3950.18315018315	128.0	128.0	3.790280078682909	22.97088300834692	26.76116308702983	481.78156754750825	574.6936982504963	-2.229007633587786	8.534351145038167	1.7251908396946565	0.15592203898050974	0.8110944527736131	0.9505247376311844	
1.7104007464761868E12	2.4782608695652173	-6.489130434782608	2.8478260869565215	3928.205128205128	128.0	128.0	3.793381308720268	22.951410168577457	26.744791477297724	481.7796202635313	574.6880727634517	-2.0610687022900764	6.931297709923664	1.3893129770992365	0.1634182908545727	0.8035982008995503	0.9580209895052474	
1.7104007464957185E12	2.4891304347826084	-6.456521739130435	2.8152173913043477	3953.113553113553	128.0	128.0	3.7888376461073934	22.934245220928815	26.723082867036208	481.782288763796	574.6991073726545	-1.6946564885496183	5.740458015267175	1.129770992366412	0.15442278860569714	0.815592203898051	0.9565217391304347	
1.7104007465152505E12	2.510869565217391	-6.456521739130435	2.7717391304347827	3951.6483516483513	128.0	128.0	3.779389712737765	22.9307112611188	26.710100973856566	481.7831542233413	574.6978813049652	-2.564885496183206	7.587786259541985	1.0229007633587786	0.1634182908545727	0.8065967016491754	0.9505247376311844	
1.7104007465347822E12	2.5652173913043477	-6.445652173913043	2.7282608695652173	3945.7875457875457	128.0	128.0	3.7905685651980123	22.967709656680785	26.758278221878797	481.7831542233413	574.6765333028476	-2.8244274809160306	6.977099236641221	1.1755725190839694	0.17091454272863568	0.7961019490254873	0.9475262368815592	
1.7104007465543142E12	2.543478260869565	-6.434782608695652	2.760869565217391	3953.113553113553	128.0	128.0	3.7929485789476134	23.013579012582188	26.8065275915298	481.78156754750825	574.6744417756131	-1.8015267175572518	6.854961832061068	1.3740458015267174	0.15742128935532235	0.7946026986506747	0.9490254872563718	
1.710400746573846E12	2.4891304347826084	-6.423913043478261	2.8260869565217392	3951.6483516483513	128.0	128.0	3.7939582817504744	23.071059950716492	26.865018232466966	481.78070208796294	574.6487664757689	-2.229007633587786	7.541984732824427	1.3587786259541985	0.17241379310344826	0.8020989505247376	0.9565217391304347	
1.710400746593378E12	2.5	-6.445652173913043	2.8152173913043477	3950.18315018315	128.0	128.0	3.791001294970667	22.973551508611624	26.76455280358229	481.788707588757	574.6924000611782	-3.5267175572519083	6.717557251908397	1.2061068702290076	0.17091454272863568	0.8110944527736131	0.9475262368815592	
1.7104007466129097E12	2.5	-6.456521739130435	2.793478260869565	3953.113553113553	128.0	128.0	3.777803036904697	22.918955435628348	26.696758472533045	481.7887797103858	574.6839618306115	-4.1679389312977095	6.824427480916031	1.129770992366412	0.16941529235382308	0.815592203898051	0.9700149925037481	
1.7104007466324417E12	2.543478260869565	-6.434782608695652	2.760869565217391	3929.6703296703295	128.0	128.0	3.78032729391185	22.8827503779829	26.66307767189475	481.7876257643254	574.717570509621	-3.3587786259541983	6.916030534351145	1.297709923664122	0.1649175412293853	0.7901049475262368	0.952023988005997	
1.7104007466519734E12	2.5217391304347827	-6.478260869565217	2.8043478260869565	3953.113553113553	128.0	128.0	3.8970200892710793	23.138710038508183	27.035730127779264	481.7885633454995	574.748150080222	-3.0076335877862594	7.190839694656488	1.4351145038167938	0.1634182908545727	0.8065967016491754	0.9655172413793103	
1.7104007466715054E12	2.5760869565217392	-6.489130434782608	2.782608695652174	3953.113553113553	128.0	128.0	4.08035326961914	24.097494971453543	28.177848241072684	481.78423604777294	574.1820674159608	-2.5343511450381677	6.473282442748092	1.1908396946564885	0.16941529235382308	0.8050974512743628	0.9490254872563718	
1.710400746691037E12	2.4891304347826084	-6.445652173913043	2.8043478260869565	3947.252747252747	128.0	128.0	3.7145523684683286	22.897391068624387	26.611943437092716	481.78358695311397	574.1656236845998	-1.8625954198473282	6.763358778625954	1.3587786259541985	0.1649175412293853	0.7946026986506747	0.9490254872563718	
1.710400746710569E12	2.630434782608696	-6.3478260869565215	2.5760869565217392	3953.113553113553	128.0	128.0	3.809752918452373	22.81171057363875	26.62146349209112	481.7845966559168	574.5850109559311	-2.7938931297709924	1.1755725190839694	0.4580152671755725	0.15742128935532235	0.8125937031484257	0.952023988005997	
1.7104007467301008E12	2.3043478260869565	-6.456521739130435	3.0217391304347827	3951.6483516483513	128.0	128.0	3.805425620725825	22.952996844410524	26.75842246513635	481.785173628947	574.7146135228412	-4.442748091603053	12.167938931297709	1.282442748091603	0.15592203898050974	0.800599700149925	0.9430284857571214	
1.7104007467496328E12	2.532608695652174	-6.423913043478261	2.858695652173913	3951.6483516483513	128.0	128.0	3.807445026331547	22.95768475028095	26.765129776612497	481.7837311963715	574.7003334403436	-2.1221374045801524	6.809160305343511	1.1450381679389312	0.17991004497751123	0.8020989505247376	0.9340329835082458	
1.7104007467691646E12	2.608695652173913	-6.358695652173913	2.7065217391304346	3951.6483516483513	128.0	128.0	3.811123229399113	22.976508495391432	26.787631724790543	481.78171179076577	574.7214650775749	-3.1908396946564883	7.465648854961832	1.5114503816793892	0.18590704647676162	0.8215892053973013	0.9430284857571214	
1.7104007467886965E12	2.467391304347826	-6.456521739130435	2.760869565217391	3928.205128205128	128.0	128.0	3.8276390823887687	22.99879407868315	26.826433161071918	481.7814954258794	574.7192293070829	-4.931297709923664	7.923664122137405	1.114503816793893	0.16941529235382308	0.8125937031484257	0.95952023988006	
1.7104007468082283E12	2.4891304347826084	-6.608695652173913	2.7391304347826084	3951.6483516483513	128.0	128.0	3.8515834631423314	23.033051852351647	26.88463531549398	481.77615842535005	574.7445439987831	-6.3969465648854955	6.519083969465648	0.564885496183206	0.1649175412293853	0.8095952023988006	0.9415292353823088	
1.7104007468277603E12	2.4456521739130435	-6.521739130434782	2.858695652173913	3953.113553113553	128.0	128.0	3.8771145197289614	23.05836654405195	26.935481063780912	481.7753650874335	574.7656035143857	-3.2671755725190836	7.740458015267175	0.8244274809160305	0.1664167916041979	0.8185907046476761	0.9505247376311844	
1.710400746847292E12	2.5	-6.413043478260869	2.75	3944.322344322344	128.0	128.0	3.8942794673775993	23.109428657225212	27.003708124602813	481.77853843909963	574.8149347084683	-3.709923664122137	6.3969465648854955	1.1908396946564885	0.1619190404797601	0.8125937031484257	0.9385307346326837	
1.710400746866824E12	2.532608695652174	-6.369565217391304	2.6956521739130435	3953.113553113553	128.0	128.0	3.93127786293958	23.205999518155995	27.137277381095576	481.7769517632666	574.8672950109595	-3.4198473282442747	7.206106870229007	1.3740458015267174	0.15742128935532235	0.8050974512743628	0.9490254872563718	
1.7104007468863557E12	2.4891304347826084	-6.380434782608695	2.760869565217391	3951.6483516483513	128.0	128.0	3.94858705384577	23.252373725458828	27.200960779304598	481.77969238516005	574.8794114445939	-3.7404580152671754	7.3893129770992365	1.3282442748091603	0.16941529235382308	0.8020989505247376	0.9640179910044977	
1.7104007469058877E12	2.4891304347826084	-6.413043478260869	2.782608695652174	3951.6483516483513	128.0	128.0	3.920892348395866	23.260667712768043	27.18156006116391	481.7780335876982	574.856837374787	-3.66412213740458	8.076335877862595	1.465648854961832	0.17991004497751123	0.8050974512743628	0.9490254872563718	
1.7104007469254194E12	2.532608695652174	-6.456521739130435	2.760869565217391	3953.113553113553	128.0	128.0	3.8969479676423036	23.199652814823725	27.09660078246603	481.7786105607284	574.7932260982068	-4.488549618320611	7.083969465648854	0.6717557251908397	0.1829085457271364	0.800599700149925	0.9685157421289355	
1.7104007469449514E12	2.5	-6.521739130434782	2.782608695652174	3929.6703296703295	128.0	128.0	3.8167487164436245	23.069833883027304	26.886582599470927	481.7788990472435	574.7324275651488	-4.67175572519084	7.526717557251908	0.6870229007633587	0.16941529235382308	0.8050974512743628	0.9745127436281859	
1.7104007469644832E12	2.5543478260869565	-6.5	2.7717391304347827	3953.113553113553	128.0	128.0	3.8044880395517398	22.987543104594128	26.792031144145867	481.7825772503111	574.7061752922745	-4.564885496183206	8.16793893129771	0.6412213740458015	0.1649175412293853	0.8125937031484257	0.9460269865067465	
1.7104007469840151E12	2.532608695652174	-6.532608695652174	2.684782608695652	3953.113553113553	128.0	128.0	3.781048510199608	22.95234774975154	26.733396259951146	481.7809184528492	574.7040116434111	-5.603053435114504	8.198473282442748	0.916030534351145	0.15742128935532235	0.8020989505247376	0.952023988005997	
1.7104007470035469E12	2.4130434782608696	-6.521739130434782	2.880434782608696	3944.322344322344	128.0	128.0	3.76301810300566	22.939221613314345	26.702239716320005	481.7796202635313	574.7105025900009	-5.129770992366412	9.938931297709923	0.916030534351145	0.1664167916041979	0.8110944527736131	0.9400299850074962	
1.7104007470230789E12	2.5543478260869565	-6.304347826086956	2.7282608695652173	3951.6483516483513	128.0	128.0	3.7653259951264855	22.943621032669668	26.708947027796153	481.77882692561474	574.7100698602284	-2.519083969465649	6.183206106870228	0.3511450381679389	0.17841079460269865	0.800599700149925	0.9475262368815592	
1.7104007470426106E12	2.4130434782608696	-6.369565217391304	2.75	3953.113553113553	128.0	128.0	3.7881885514484113	22.97037815694549	26.7585667083939	481.7757978172062	574.7331487814366	-5.404580152671755	6.488549618320611	0.5954198473282443	0.15592203898050974	0.8035982008995503	0.9505247376311844	
1.7104007470621426E12	2.467391304347826	-6.413043478260869	2.9239130434782608	3951.6483516483513	128.0	128.0	3.797852849704367	22.98408126641289	26.781934116117256	481.7784663174709	574.7244941859835	-3.8625954198473282	8.458015267175572	0.6106870229007634	0.1634182908545727	0.8110944527736131	0.9475262368815592	
1.7104007470816743E12	2.5543478260869565	-6.5	2.7717391304347827	3953.113553113553	128.0	128.0	3.8017474176582597	22.999226808455806	26.800974226114064	481.77998087167515	574.7286051188237	-5.083969465648854	5.770992366412213	0.564885496183206	0.1664167916041979	0.8065967016491754	0.9430284857571214	
1.7104007471012063E12	2.5	-6.543478260869565	2.7717391304347827	3929.6703296703295	128.0	128.0	3.818335392276692	22.978816387512257	26.797151779788948	481.78300998008376	574.7187244556815	-4.061068702290076	8.183206106870228	0.8854961832061068	0.15142428785607195	0.8110944527736131	0.9475262368815592	
1.710400747120738E12	2.5	-6.510869565217391	2.75	3953.113553113553	128.0	128.0	3.801386809514381	22.974344846528158	26.775731656042538	481.78012511493273	574.7167771717045	-4.351145038167939	7.587786259541985	1.099236641221374	0.1619190404797601	0.8125937031484257	0.9490254872563718	
1.71040074714027E12	2.467391304347826	-6.456521739130435	2.684782608695652	3953.113553113553	128.0	128.0	3.792804335690062	22.959704155886673	26.752508491576734	481.778105709327	574.7118729009477	-3.450381679389313	5.923664122137405	0.9312977099236641	0.1619190404797601	0.8125937031484257	0.952023988005997	
1.7104007471598018E12	2.4456521739130435	-6.467391304347826	2.7282608695652173	3944.322344322344	128.0	128.0	3.791361903114546	22.949823492744386	26.74118539585893	481.7784663174709	574.706968630191	-3.0839694656488548	6.961832061068702	0.5801526717557252	0.1634182908545727	0.7886056971514243	0.9475262368815592	
1.7104007471793337E12	2.467391304347826	-6.423913043478261	2.7065217391304346	3953.113553113553	128.0	128.0	3.783789132093088	22.95487200675869	26.73866113885178	481.7820002772809	574.7084831843953	-3.6030534351145036	6.2748091603053435	0.47328244274809156	0.17091454272863568	0.8110944527736131	0.9475262368815592	
1.7104007471988655E12	2.532608695652174	-6.423913043478261	2.6630434782608696	3953.113553113553	128.0	128.0	3.785159443039828	22.99230313209333	26.777462575133157	481.78156754750825	574.7045164948125	-4.564885496183206	5.83206106870229	0.32061068702290074	0.15742128935532235	0.7976011994002998	0.9565217391304347	
1.7104007472183975E12	2.5217391304347827	-6.434782608695652	2.75	3951.6483516483513	128.0	128.0	3.802035904173363	23.0579338142793	26.85996971845266	481.7801972365615	574.6859091145884	-4.6106870229007635	7.007633587786259	0.16793893129770993	0.16941529235382308	0.8050974512743628	0.9565217391304347	
1.7104007472379292E12	2.5	-6.456521739130435	2.75	3953.113553113553	128.0	128.0	3.8252590686391676	23.06853569370934	26.893794762348506	481.7807742095917	574.6596568417141	-4.3206106870229	6.564885496183206	-0.061068702290076333	0.17391304347826086	0.8035982008995503	0.9505247376311844	
1.7104007472574612E12	2.5217391304347827	-6.456521739130435	2.6739130434782608	3928.205128205128	128.0	128.0	3.808166242619305	22.997207402850083	26.805373645469388	481.78142330425067	574.6826636412935	-4.65648854961832	5.6183206106870225	0.2900763358778626	0.1634182908545727	0.8185907046476761	0.9475262368815592	
1.710400747276993E12	2.5	-6.456521739130435	2.717391304347826	3951.6483516483513	128.0	128.0	3.7815533616010386	22.93092762600513	26.712480987606167	481.77788934444067	574.7061031706456	-4.473282442748092	6.809160305343511	0.4427480916030534	0.1619190404797601	0.8095952023988006	0.9565217391304347	
1.710400747296525E12	2.5760869565217392	-6.467391304347826	2.6956521739130435	3951.6483516483513	128.0	128.0	3.7785963748212312	22.919171800514675	26.697768175335906	481.78026935819025	574.7131710902656	-4.091603053435114	6.473282442748092	0.732824427480916	0.1619190404797601	0.8020989505247376	0.9565217391304347	
1.7104007473160566E12	2.4891304347826084	-6.489130434782608	2.717391304347826	3944.322344322344	128.0	128.0	4.036214832808356	23.429071715959516	27.46528654876787	481.77500447928963	574.6649217206146	-3.7862595419847325	6.65648854961832	0.9618320610687022	0.1619190404797601	0.7946026986506747	0.9460269865067465	
1.7104007473355886E12	2.5	-6.510869565217391	2.6956521739130435	3953.113553113553	128.0	128.0	3.955078000435591	24.246209769989225	28.201287770424816	481.7827936151974	573.8855754000634	-3.541984732824427	6.442748091603053	0.7786259541984732	0.16941529235382308	0.8095952023988006	0.952023988005997	
1.7104007473551204E12	2.4565217391304346	-6.445652173913043	2.684782608695652	3951.6483516483513	128.0	128.0	3.789630984023927	22.778750989288213	26.56838197331214	481.78113481773556	574.4016056539542	-2.763358778625954	6.65648854961832	0.8091603053435115	0.15742128935532235	0.8050974512743628	0.95952023988006	
1.7104007473746523E12	2.5978260869565215	-6.413043478260869	2.5543478260869565	3951.6483516483513	128.0	128.0	3.846895557271905	22.869696363174484	26.716591920446387	481.77998087167515	574.6934097639811	-4.442748091603053	-1.2366412213740459	-0.9312977099236641	0.17691154422788605	0.8200899550224887	0.952023988005997	
